FILE_INFO
ListSeparator=,
DecimalSeparator=.

SESSION_INFO
TimeZone,UTC
TimeZoneOffset,0
DateTimeFormat,nnnnnnnnnnnnnnnnnnn
StartTime,07/30/26 22:00:23.964121200
TimeFormat,Unix

DEVICE_INFO
Address,*

CHANNEL_INFO
Channel,Type,SampleRate,Equation,Coefficients,Unit,UnitSymbol,WhereApplied,WhenApplied
inertial-6286.188868:scaledAccelX,Timeseries,100Hz,,,,,,
inertial-6286.188868:scaledAccelY,Timeseries,100Hz,,,,,,
inertial-6286.188868:scaledAccelZ,Timeseries,100Hz,,,,,,

DATA_START
Time,inertial-6286.188868:scaledAccelX,inertial-6286.188868:scaledAccelY,inertial-6286.188868:scaledAccelZ
1785448823964121200,0.01291956566274166,0.09659530967473984,-0.9920162558555603
1785448823964158200,0.01303081214427948,0.0966685488820076,-0.9923176169395447
1785448823984045600,0.01291192974895239,0.0966891422867775,-0.9921684861183167
1785448823984105100,0.01295793801546097,0.09668727964162827,-0.992730438709259
1785448824004065400,0.01303190551698208,0.09659634530544281,-0.9926502108573914
1785448824004097800,0.01302895322442055,0.09639008343219757,-0.9921772480010986
1785448824024092600,0.01304844487458467,0.09641994535923004,-0.9923703670501709
1785448824024129900,0.01304780505597591,0.09675315022468567,-0.9923609495162964
1785448824044090100,0.01305309496819973,0.09677735716104507,-0.992415189743042
1785448824044126100,0.01303187385201454,0.09665518999099731,-0.9923262596130371
1785448824064024400,0.01317272055894136,0.09656886011362076,-0.9925795793533325
1785448824064078100,0.01301198452711105,0.0965002253651619,-0.9925510883331299
1785448824084156300,0.01294082961976528,0.0966508537530899,-0.9924984574317932
1785448824084208300,0.01292102131992579,0.09676909446716309,-0.9926263689994812
1785448824104057100,0.01319410186260939,0.09670437872409821,-0.9924530386924744
1785448824104081900,0.01325877383351326,0.09667203575372696,-0.9926361441612244
1785448824124040800,0.0129313999786973,0.09659580886363983,-0.9925954341888428
1785448824124099000,0.01283046416938305,0.09665703028440475,-0.9923645853996277
1785448824143980400,0.0128976833075285,0.09651214629411697,-0.9923440217971802
1785448824144012600,0.01295319106429815,0.09657878428697586,-0.9921466708183289
1785448824164010400,0.01297389157116413,0.09667081385850906,-0.992210328578949
1785448824164054400,0.01303142681717873,0.09663303941488266,-0.992394745349884
1785448824183971600,0.01286625955253839,0.09653055667877197,-0.9922724366188049
1785448824184001200,0.01304989960044622,0.09644030779600143,-0.9920041561126709
1785448824203845500,0.01292942278087139,0.0966765284538269,-0.9921640157699585
1785448824203874800,0.01304830610752106,0.09657841920852661,-0.9924880266189575
1785448824223967200,0.01305486261844635,0.09668201208114624,-0.9918449521064758
1785448824224018100,0.01299955602735281,0.09656611084938049,-0.9926197528839111
1785448824243987000,0.01311998348683119,0.09650606662034988,-0.9924606680870056
1785448824244035900,0.01293862517923117,0.09663167595863342,-0.9921231269836426
1785448824263881600,0.01301984582096338,0.0964498296380043,-0.9924612641334534
1785448824263974700,0.01305330637842417,0.09660259634256363,-0.9924718737602234
1785448824284022900,0.01301807258278131,0.09665583819150925,-0.9926868081092834
1785448824284062300,0.01318701263517141,0.09680411219596863,-0.9921861290931702
1785448824303892900,0.0131766414269805,0.09657374024391174,-0.992260754108429
1785448824303916200,0.01317624561488628,0.09663340449333191,-0.9926668405532837
1785448824323877400,0.01307331211864948,0.09641886502504349,-0.992644190788269
1785448824323940600,0.01302529498934746,0.09657987207174301,-0.9923670887947083
1785448824343885000,0.01289871335029602,0.09652433544397354,-0.9925159811973572
1785448824344168700,0.01306609809398651,0.09660112857818604,-0.9925302863121033
1785448824363885900,0.0129312239587307,0.09643228352069855,-0.9922776818275452
1785448824363918700,0.01283701974898577,0.09645803272724152,-0.9924374222755432
1785448824384023200,0.01302145235240459,0.09633015841245651,-0.9924758672714233
1785448824384089900,0.01293457299470901,0.09656275808811188,-0.9923745393753052
1785448824403824700,0.0127945551648736,0.09654920548200607,-0.9926264882087708
1785448824403854100,0.01286236010491848,0.09662569314241409,-0.9922177195549011
1785448824423823400,0.01317536272108555,0.09659066796302795,-0.9926470518112183
1785448824423870200,0.01298373844474554,0.0965416356921196,-0.9925626516342163
1785448824443700600,0.01303243450820446,0.09675747156143188,-0.992438018321991
1785448824443769800,0.01301667466759682,0.09650837630033493,-0.9927889704704285
1785448824463718600,0.01288672164082527,0.09657829999923706,-0.992483377456665
1785448824463770700,0.01291588135063648,0.09654626995325089,-0.9925479292869568
1785448824483755400,0.01288953796029091,0.09633602201938629,-0.9925731420516968
1785448824483819600,0.01286036428064108,0.09651473164558411,-0.992390513420105
1785448824503735000,0.01303713582456112,0.09640651941299438,-0.9922115802764893
1785448824503776400,0.01276594214141369,0.09683859348297119,-0.9922598600387573
1785448824523712300,0.01290962193161249,0.09668446332216263,-0.9924783706665039
1785448824523775300,0.01290487591177225,0.09703044593334198,-0.9921060800552368
1785448824543742700,0.01308272127062082,0.09661600738763809,-0.9926146864891052
1785448824543797500,0.01309435628354549,0.09653198719024658,-0.9924744963645935
1785448824563658200,0.01305419206619263,0.09662842750549316,-0.9925842881202698
1785448824563689200,0.01298943441361189,0.09660017490386963,-0.9925904870033264
1785448824583749500,0.01330783404409885,0.0967852994799614,-0.9925854206085205
1785448824583785100,0.01296878140419722,0.09695903211832047,-0.9925708770751953
1785448824603633200,0.01290293131023645,0.09706748276948929,-0.9925317764282227
1785448824603665900,0.01289118081331253,0.09666788578033447,-0.9923599362373352
1785448824623671300,0.01314496248960495,0.09662093222141266,-0.9927263855934143
1785448824623718500,0.01315635442733765,0.09638098627328873,-0.9924081563949585
1785448824643632400,0.01278785429894924,0.09638379514217377,-0.9925022721290588
1785448824643665600,0.01285336259752512,0.09649080783128738,-0.9924495220184326
1785448824663642100,0.01299645844846964,0.09665992856025696,-0.9925653338432312
1785448824663690400,0.01314042136073112,0.09678856283426285,-0.9924572706222534
1785448824683586700,0.01292731892317533,0.0968509241938591,-0.9927104711532593
1785448824683637100,0.01296797581017017,0.09683437645435333,-0.9924994111061096
1785448824703609000,0.0129037806764245,0.0969734862446785,-0.9926150441169739
1785448824703697000,0.0128920515999198,0.09672009944915771,-0.9923964142799377
1785448824723603400,0.01276582852005959,0.09675557166337967,-0.9922193884849548
1785448824723670500,0.01291927881538868,0.09657029062509537,-0.9924142956733704
1785448824743540300,0.0129017885774374,0.09664556384086609,-0.9920860528945923
1785448824743600000,0.01308790780603886,0.09675884991884232,-0.9923235774040222
1785448824763603200,0.01334309577941895,0.09651073813438416,-0.9926466345787048
1785448824763641400,0.01313489302992821,0.09663034975528717,-0.9922158122062683
1785448824783501900,0.01299926266074181,0.09680487215518951,-0.9925520420074463
1785448824783550900,0.01287647895514965,0.09661039710044861,-0.9925069212913513
1785448824803559500,0.0128399645909667,0.09678718447685242,-0.992591381072998
1785448824803595200,0.01290066167712212,0.0966656282544136,-0.9925114512443542
1785448824823578900,0.01291860360652208,0.09649404883384705,-0.9926590323448181
1785448824823641700,0.01301437243819237,0.09651467204093933,-0.9926556348800659
1785448824843475600,0.01285425946116447,0.09635303914546967,-0.9924220442771912
1785448824843524000,0.01280713547021151,0.09640765190124512,-0.992467999458313
1785448824863462400,0.0129919508472085,0.09650843590497971,-0.9922888278961182
1785448824863502800,0.01278788316994905,0.09685500711202621,-0.9927313923835754
1785448824883496300,0.0131852300837636,0.09694791585206985,-0.9923869371414185
1785448824883530800,0.01304021943360567,0.0967138484120369,-0.9924963116645813
1785448824903474000,0.01314023230224848,0.09667631983757019,-0.9929970502853394
1785448824903510600,0.01310043595731258,0.09677146375179291,-0.9922203421592712
1785448824923388100,0.01287081837654114,0.09662674367427826,-0.9925063252449036
1785448824923425300,0.01275936514139175,0.09678264707326889,-0.9929088950157166
1785448824943425200,0.01274260971695185,0.09677328914403915,-0.9924429655075073
1785448824943456000,0.01284435018897057,0.09703666716814041,-0.9920721650123596
1785448824963463600,0.01283442322164774,0.09705142676830292,-0.9926871657371521
1785448824963496400,0.01295990496873856,0.09669796377420425,-0.9923135042190552
1785448824983325800,0.01289013121277094,0.09637210518121719,-0.9920965433120728
1785448824983365900,0.01304086018353701,0.09630274027585983,-0.9924739599227905
1785448825003403800,0.01328192092478275,0.09628626704216003,-0.9925761818885803
1785448825003463300,0.01296698022633791,0.09640517085790634,-0.9928153157234192
1785448825023283800,0.01296507846564054,0.09678993374109268,-0.9926134347915649
1785448825023331900,0.01288190763443708,0.09690148383378983,-0.9922864437103271
1785448825043350500,0.01283354312181473,0.09687377512454987,-0.9924970269203186
1785448825043385900,0.01277573779225349,0.09677182137966156,-0.992444634437561
1785448825063608900,0.01271736714988947,0.09648574888706207,-0.9919828772544861
1785448825063653600,0.01301881391555071,0.0962025448679924,-0.9923880100250244
1785448825083358700,0.01285807974636555,0.0964023768901825,-0.9922803640365601
1785448825083413600,0.01277521345764399,0.09641759097576141,-0.9924927353858948
1785448825103338500,0.01299968827515841,0.09673669189214706,-0.9921345114707947
1785448825103390500,0.01291023939847946,0.09690620750188828,-0.9922864437103271
1785448825123270100,0.01286751497536898,0.09688552469015121,-0.9922691583633423
1785448825123315500,0.01309341564774513,0.09670702368021011,-0.9919834733009338
1785448825143229900,0.01295433193445206,0.09637121856212616,-0.99265456199646
1785448825143324400,0.01285015139728785,0.09638966619968414,-0.9925749897956848
1785448825163204000,0.01304035261273384,0.09665112197399139,-0.9924258589744568
1785448825163248200,0.01286434754729271,0.0970243439078331,-0.9924126267433167
1785448825183290800,0.01288270018994808,0.09712059050798416,-0.9922066926956177
1785448825183344000,0.01277809869498014,0.09696124494075775,-0.9921591877937317
1785448825203221900,0.01286720391362906,0.09697916358709335,-0.9922900795936584
1785448825203253500,0.01305692829191685,0.0966760665178299,-0.9922572374343872
1785448825223258500,0.01306530181318521,0.09660620242357254,-0.992285430431366
1785448825223286700,0.01308855134993792,0.09649574011564255,-0.9926545023918152
1785448825243250100,0.01296329125761986,0.09665000438690186,-0.9924094080924988
1785448825243280400,0.01279666554182768,0.09702698141336441,-0.9925404191017151
1785448825263246600,0.01305651944130659,0.09687284380197525,-0.9925826787948608
1785448825263277800,0.01295900344848633,0.09707111865282059,-0.9923022389411926
1785448825283376300,0.01273737568408251,0.09675197303295135,-0.99249666929245
1785448825283468700,0.01287668943405151,0.09671316295862198,-0.9924278855323792
1785448825303149700,0.01292208209633827,0.09674172848463058,-0.9922326803207397
1785448825303181800,0.01288000680506229,0.09656995534896851,-0.9924113154411316
1785448825323161400,0.013083734549582,0.09640310704708099,-0.9924689531326294
1785448825323191600,0.01302503887563944,0.09650926291942596,-0.9924090504646301
1785448825343254400,0.01296200416982174,0.09644073992967606,-0.9923630356788635
1785448825343329800,0.01297101564705372,0.09656453132629395,-0.992701530456543
1785448825363131100,0.01292922254651785,0.09649139642715454,-0.9923627972602844
1785448825363182000,0.01293750666081905,0.09661927819252014,-0.9924370050430298
1785448825383185300,0.01297626551240683,0.09666076302528381,-0.9926687479019165
1785448825383248900,0.01300293114036322,0.0965796560049057,-0.9927276372909546
1785448825403166600,0.01294751930981874,0.09660177677869797,-0.9922938346862793
1785448825403196300,0.0131175396963954,0.09676969796419144,-0.9926252365112305
1785448825423061700,0.01303298585116863,0.09697428345680237,-0.9922332763671875
1785448825423106600,0.01296164374798536,0.09708836674690247,-0.9924035668373108
1785448825444082800,0.01279794704169035,0.09687377512454987,-0.9926344156265259
1785448825444129200,0.01280462834984064,0.09663302451372147,-0.9927844405174255
1785448825464061300,0.01271218247711658,0.09632319957017899,-0.9924690723419189
1785448825464100000,0.01288600638508797,0.09639355540275574,-0.9923063516616821
1785448825484060000,0.0128882946446538,0.09659445285797119,-0.9923883676528931
1785448825484105200,0.01308765355497599,0.09645429253578186,-0.9922107458114624
1785448825504009700,0.01311441604048014,0.09634720534086227,-0.9923146367073059
1785448825504051300,0.01289498060941696,0.09643285721540451,-0.9922170639038086
1785448825524024300,0.01304728537797928,0.0969332680106163,-0.9920830726623535
1785448825524053000,0.01274881884455681,0.09699768573045731,-0.9923868775367737
1785448825544017200,0.0129982391372323,0.09688663482666016,-0.9924112558364868
1785448825544040300,0.01297137513756752,0.09660306572914124,-0.9919941425323486
1785448825563962100,0.01277394872158766,0.09640570729970932,-0.9928158521652222
1785448825563996500,0.01295565627515316,0.09597700089216232,-0.9926009178161621
1785448825584008100,0.01295394636690617,0.09611161053180695,-0.9922529458999634
1785448825584042500,0.01290135830640793,0.09644975513219833,-0.9926996827125549
1785448825604020300,0.01305562909692526,0.09668026864528656,-0.9926243424415588
1785448825604049600,0.01298107672482729,0.09675975888967514,-0.9921368956565857
1785448825624038900,0.01284493878483772,0.09701161086559296,-0.9928589463233948
1785448825624065900,0.01293062418699265,0.09685049206018448,-0.9927100539207458
1785448825643999100,0.01296491082757711,0.09661447256803513,-0.9926088452339172
1785448825644035000,0.01272771041840315,0.09636474400758743,-0.9925811290740967
1785448825663929700,0.01297295931726694,0.09604276716709137,-0.9924579262733459
1785448825663969400,0.01268471404910088,0.09612265229225159,-0.9922030568122864
1785448825683941300,0.01258511934429407,0.0965740755200386,-0.9923617243766785
1785448825683976800,0.01275752205401659,0.09651871770620346,-0.9922996759414673
1785448825703889100,0.01285764575004578,0.09690685570240021,-0.9922930002212524
1785448825703921000,0.01297536306083202,0.09695395827293396,-0.9922509789466858
1785448825723922700,0.01303625665605068,0.09680435061454773,-0.9925256967544556
1785448825723966800,0.01300595793873072,0.09665482491254807,-0.9929182529449463
1785448825743862500,0.01316357776522636,0.09635479003190994,-0.9927616119384766
1785448825743896800,0.01305468566715717,0.09645155072212219,-0.9927569627761841
1785448825763861000,0.01302872877568007,0.09662667661905289,-0.9927323460578918
1785448825763892100,0.01311652548611164,0.09669660031795502,-0.9924007654190063
1785448825783892100,0.01298596058040857,0.09691362828016281,-0.9922620058059692
1785448825783973200,0.01270515471696854,0.09701992571353912,-0.9921268820762634
1785448825803938200,0.01297477539628744,0.09700594842433929,-0.9924585223197937
1785448825803971200,0.01301343459635973,0.09680929034948349,-0.9922887086868286
1785448825823843600,0.01301946584135294,0.09670497477054596,-0.9923279285430908
1785448825823913700,0.01288179960101843,0.09613785147666931,-0.9927468299865723
1785448825843847300,0.01297667063772678,0.09647382795810699,-0.9925870895385742
1785448825843910300,0.01284616440534592,0.09650359302759171,-0.9926726818084717
1785448825863798800,0.01297351531684399,0.09684289246797562,-0.9922454357147217
1785448825863844900,0.01296213269233704,0.09653232246637344,-0.9925652146339417
1785448825883755600,0.01301615592092276,0.09618895500898361,-0.992116391658783
1785448825883798300,0.01302285492420197,0.09633988887071609,-0.9921792149543762
1785448825903811300,0.01318001002073288,0.09680292010307312,-0.9921969771385193
1785448825903845700,0.01305312011390924,0.09669803082942963,-0.9924414753913879
1785448825923758200,0.01300288457423449,0.09653845429420471,-0.9924190640449524
1785448825923790000,0.01279585715383291,0.0964406430721283,-0.9923281073570251
1785448825943704800,0.01283971685916185,0.09610574692487717,-0.9927240014076233
1785448825943737800,0.01295903418213129,0.09622736275196075,-0.9925482273101807
1785448825963768500,0.01288252323865891,0.09637083113193512,-0.9926251173019409
1785448825963806700,0.01297730673104525,0.09645755589008331,-0.9927179217338562
1785448825983865500,0.0127923684194684,0.09662725776433945,-0.992339551448822
1785448825983998500,0.01250634249299765,0.09680135548114777,-0.9924860596656799
1785448826003752600,0.01314143463969231,0.09674522280693054,-0.9921101331710815
1785448826003780000,0.01296538114547729,0.09668207168579102,-0.9927889704704285
1785448826023677900,0.01311122160404921,0.09641854465007782,-0.9922692775726318
1785448826023723000,0.01298900321125984,0.0968942791223526,-0.9927572011947632
1785448826043716000,0.01295895967632532,0.09701182693243027,-0.9926256537437439
1785448826043742200,0.01295647211372852,0.09709493070840836,-0.9923960566520691
1785448826063686800,0.01321835909038782,0.09693579375743866,-0.9925565719604492
1785448826063733200,0.01312882080674171,0.09665991365909576,-0.9921779036521912
1785448826083720100,0.01315538864582777,0.09640522301197052,-0.9925006628036499
1785448826083799700,0.01315951626747847,0.09634315967559814,-0.9925045371055603
1785448826103623300,0.01303568575531244,0.09653479605913162,-0.992197573184967
1785448826103652600,0.0132385827600956,0.09653832018375397,-0.9927762746810913
1785448826123643000,0.0132213281467557,0.09697437286376953,-0.9919675588607788
1785448826123677900,0.01302600745111704,0.09724180400371552,-0.9922260642051697
1785448826143595700,0.01319568138569593,0.09721361100673676,-0.9919129014015198
1785448826143623700,0.0129832262173295,0.09706786274909973,-0.9924167990684509
1785448826163730500,0.01323528029024601,0.09649564325809479,-0.9927790760993958
1785448826163768300,0.01319487020373344,0.096279576420784,-0.9920560121536255
1785448826183805300,0.01322183292359114,0.09613309055566788,-0.9925256371498108
1785448826183838000,0.01305600814521313,0.09616914391517639,-0.992514431476593
1785448826203633000,0.01281121931970119,0.09653124958276749,-0.9920470714569092
1785448826203672400,0.01298337057232857,0.09683749824762344,-0.9922704696655273
1785448826223583200,0.01292804069817066,0.09683049470186234,-0.9922714829444885
1785448826223609400,0.01294500473886728,0.0967903658747673,-0.9924058318138123
1785448826243579600,0.01323494967073202,0.09673700481653214,-0.9924053549766541
1785448826243633700,0.01310135796666145,0.09652186185121536,-0.9928010702133179
1785448826263561300,0.01323097385466099,0.09629546850919724,-0.9924924373626709
1785448826263634700,0.01321482285857201,0.09639421850442886,-0.9921826124191284
1785448826283530200,0.01435189973562956,0.09621424227952957,-0.9923514723777771
1785448826283576800,0.0144507922232151,0.096762515604496,-0.9913585782051086
1785448826303557800,0.01414464134722948,0.09711142629384995,-0.9915722608566284
1785448826303671700,0.01465784758329391,0.0976112112402916,-0.991520881652832
1785448826323501700,0.01360828336328268,0.09934847801923752,-0.9915086030960083
1785448826323546700,0.01152216643095016,0.101174883544445,-0.9904073476791382
1785448826343454300,0.00902355182915926,0.1042549684643745,-0.9886464476585388
1785448826343483000,0.006665367633104324,0.1042989492416382,-0.9875217080116272
1785448826363599900,0.009288344532251358,0.09869547188282013,-0.9907817244529724
1785448826363640900,0.01603496447205544,0.09189125150442123,-0.9952923059463501
1785448826383532700,0.01995603926479816,0.0885780081152916,-0.9961761236190796
1785448826383565500,0.01856620982289314,0.08866275101900101,-0.9956163167953491
1785448826403529200,0.01835954375565052,0.0887092649936676,-0.9951244592666626
1785448826403558800,0.01606961339712143,0.08940941840410233,-0.9933311343193054
1785448826423439700,0.01268809102475643,0.09132153540849686,-0.9918199181556702
1785448826423467500,0.01278960146009922,0.09572713822126389,-0.9905547499656677
1785448826443438300,0.01488420832902193,0.09834514558315277,-0.9905133247375488
1785448826443489600,0.01438062358647585,0.09884311258792877,-0.9902849793434143
1785448826463449400,0.01384060923010111,0.09752297401428223,-0.9914047718048096
1785448826463503900,0.01363227050751448,0.09503240138292313,-0.9917046427726746
1785448826483406400,0.01515287440270185,0.0924132913351059,-0.9917941093444824
1785448826483439500,0.01698030345141888,0.08949555456638336,-0.9937503933906555
1785448826503396200,0.01829133927822113,0.08710069209337234,-0.9945699572563171
1785448826503449000,0.02198728546500206,0.086124487221241,-0.9953207969665527
1785448826523412700,0.02039206027984619,0.08284108340740204,-0.9953355193138123
1785448826523443000,0.01435961853712797,0.07598801702260971,-0.9953681826591492
1785448826543348700,0.01023723930120468,0.06815472990274429,-0.9957406520843506
1785448826543389500,0.009079670533537865,0.06176755949854851,-0.9962981939315796
1785448826563338800,0.00546415988355875,0.05675621703267097,-0.9963923096656799
1785448826563372300,0.00461611757054925,0.05477176979184151,-0.9967114925384521
1785448826583403400,0.006953699514269829,0.06061162427067757,-0.9963898062705994
1785448826583436700,0.01376847457140684,0.07154367864131927,-0.9961749911308289
1785448826603273200,0.02388940751552582,0.08684037625789642,-0.994300901889801
1785448826603312800,0.02154750935733318,0.0998305156826973,-0.9896989464759827
1785448826623286300,0.02067296952009201,0.0997663289308548,-0.9892942905426025
1785448826623328400,0.0193120539188385,0.08923529833555222,-0.9922952651977539
1785448826643267900,0.01747420243918896,0.08140581846237183,-0.9937575459480286
1785448826643319000,0.01587530411779881,0.08032379299402237,-0.9935036897659302
1785448826663356600,0.01577789336442947,0.08074349910020828,-0.9931804537773132
1785448826663399100,0.01652448996901512,0.08126892149448395,-0.9930545091629028
1785448826683318000,0.01864472217857838,0.08495534956455231,-0.9930720329284668
1785448826683368800,0.01686592400074005,0.08288412541151047,-0.9933037161827087
1785448826703285700,0.02316131629049778,0.07729724794626236,-0.9950084686279297
1785448826703316500,0.02229173853993416,0.07522699236869812,-0.9950628876686096
1785448826723279200,0.02182269096374512,0.07739664614200592,-0.9945206046104431
1785448826723311400,0.01852039061486721,0.07785443961620331,-0.9942602515220642
1785448826743246000,0.01790144294500351,0.07699140906333923,-0.9944010972976685
1785448826743283700,0.02094482071697712,0.07980232685804367,-0.9939636588096619
1785448826763236100,0.02411831915378571,0.08616713434457779,-0.9930389523506165
1785448826763282600,0.02315086685121059,0.08419737964868546,-0.9933270215988159
1785448826783302600,0.02228461392223835,0.07822763919830322,-0.9944626092910767
1785448826783350400,0.0203840546309948,0.07160922884941101,-0.9948195815086365
1785448826803197200,0.01680851168930531,0.06912076473236084,-0.9943552613258362
1785448826803225900,0.01502757612615824,0.07263565063476562,-0.9931867718696594
1785448826823235900,0.0167479682713747,0.07681509107351303,-0.9934635162353516
1785448826823301000,0.01603101938962936,0.07649222761392593,-0.9939233064651489
1785448826843165300,0.01467298902571201,0.0702943280339241,-0.995347797870636
1785448826843218100,0.0164159033447504,0.06492695212364197,-0.996857762336731
1785448826863168000,0.0170118622481823,0.06440360844135284,-0.9969855546951294
1785448826863206400,0.01884271763265133,0.07165918499231339,-0.9953362941741943
1785448826883239200,0.01908496022224426,0.08020936697721481,-0.9926221370697021
1785448826883326700,0.02037278935313225,0.08367036283016205,-0.9918851256370544
1785448826903134100,0.02069488540291786,0.08152613788843155,-0.9926052689552307
1785448826903167100,0.02074208669364452,0.0786779448390007,-0.9936234951019287
1785448826923079800,0.01820613630115986,0.07547548413276672,-0.9946354031562805
1785448826923104400,0.01695806719362736,0.07396059483289719,-0.994666576385498
1785448826943133400,0.01664761453866959,0.0763547345995903,-0.9940484166145325
1785448826943171100,0.02028391323983669,0.07817018777132034,-0.99416583776474
1785448826963069000,0.02337631769478321,0.0797845870256424,-0.9943135976791382
1785448826963121900,0.0242492537945509,0.07656198740005493,-0.9938768744468689
1785448826984068800,0.02807131409645081,0.07827099412679672,-0.9947508573532104
1785448826984112500,0.0333283506333828,0.08437091857194901,-0.9953790903091431
1785448827004095400,0.03137936815619469,0.08437635749578476,-0.994999885559082
1785448827004123800,0.02591314539313316,0.07980559021234512,-0.9949865341186523
1785448827024040500,0.02437176555395126,0.07884683459997177,-0.9940894246101379
1785448827024078200,0.02411944791674614,0.07962666451931,-0.992917537689209
1785448827044038100,0.02441309206187725,0.08786904811859131,-0.9912142753601074
1785448827044068600,0.02609465830028057,0.09760477393865585,-0.9901763200759888
1785448827063988400,0.02619394659996033,0.1001945063471794,-0.9909945726394653
1785448827064039300,0.0232915710657835,0.09197960793972015,-0.9921867251396179
1785448827084067300,0.0228495579212904,0.0827891007065773,-0.9943296313285828
1785448827084124500,0.01928115263581276,0.0728142037987709,-0.9949371814727783
1785448827104002700,0.01420435681939125,0.06685942411422729,-0.9946627020835876
1785448827104044200,0.01133168581873178,0.06705953925848007,-0.9944894909858704
1785448827124069300,0.007946455851197243,0.0695880725979805,-0.993155300617218
1785448827124101000,0.005975720938295126,0.06512675434350967,-0.9947647452354431
1785448827144017400,0.009475350379943848,0.06023065000772476,-0.9961011409759521
1785448827144037200,0.01080451067537069,0.05634475499391556,-0.9960696697235107
1785448827164088800,0.01319429837167263,0.05863011628389359,-0.9965819120407104
1785448827164166200,0.0150579372420907,0.06398090720176697,-0.995686948299408
1785448827183930700,0.01810136623680592,0.06940305233001709,-0.99501633644104
1785448827183995700,0.01988627761602402,0.07445294409990311,-0.9947561025619507
1785448827203935600,0.02236820384860039,0.08074320107698441,-0.9940581321716309
1785448827203963400,0.02072692289948463,0.08220662921667099,-0.9933352470397949
1785448827223904400,0.01461578067392111,0.07247190922498703,-0.9942461252212524
1785448827223932500,0.01497215032577515,0.06481733918190002,-0.9952295422554016
1785448827244738200,0.01671180874109268,0.06625270843505859,-0.9952414035797119
1785448827244770800,0.01669747568666935,0.07147914916276932,-0.9943611025810242
1785448827263827700,0.01729447767138481,0.0760471522808075,-0.9936027526855469
1785448827263882000,0.01970113441348076,0.07750604301691055,-0.9938750267028809
1785448827283815900,0.02042482607066631,0.07636666297912598,-0.9947388768196106
1785448827283866800,0.02111505903303623,0.07187542319297791,-0.9953852295875549
1785448827303888400,0.02117821574211121,0.0710933580994606,-0.9951342344284058
1785448827303915400,0.01951438561081886,0.07218104600906372,-0.9947746396064758
1785448827323809700,0.02009960077702999,0.07428137958049774,-0.993342399597168
1785448827323852000,0.02058656886219978,0.07598932087421417,-0.9941360950469971
1785448827343778100,0.01952148787677288,0.07431161403656006,-0.9948069453239441
1785448827343806100,0.01969419792294502,0.07530729472637177,-0.9939559102058411
1785448827363824300,0.02264253795146942,0.08081210404634476,-0.9928901791572571
1785448827363881200,0.02322262339293957,0.08553308248519897,-0.9922311305999756
1785448827383791800,0.02195129729807377,0.08524377644062042,-0.9922336339950562
1785448827383848200,0.02166407555341721,0.08315147459506989,-0.993359386920929
1785448827403802000,0.02101255021989346,0.08075324445962906,-0.9939436912536621
1785448827403855100,0.02053696662187576,0.08108658343553543,-0.9937099814414978
1785448827423832500,0.02081067301332951,0.08300364017486572,-0.9937416911125183
1785448827423868300,0.01976150274276733,0.08147584646940231,-0.9939090013504028
1785448827443885500,0.01852378435432911,0.07852137088775635,-0.9939479827880859
1785448827443924300,0.01616617664694786,0.07354892045259476,-0.9939882159233093
1785448827463794600,0.01427319925278425,0.06907195597887039,-0.9948221445083618
1785448827463833900,0.01038542669266462,0.0613989382982254,-0.9954285025596619
1785448827483907400,0.01395046804100275,0.06006072089076042,-0.9954903721809387
1785448827483977100,0.01624978519976139,0.06620432436466217,-0.9955182671546936
1785448827503807100,0.01781813614070415,0.07160788774490356,-0.9947207570075989
1785448827503877800,0.02035656198859215,0.0773872584104538,-0.9933754205703735
1785448827523702200,0.02318359352648258,0.08054438233375549,-0.9936668872833252
1785448827523766300,0.02392809465527534,0.0825640857219696,-0.9936227798461914
1785448827543710600,0.02433216571807861,0.0818018764257431,-0.9935951828956604
1785448827543734800,0.02441912144422531,0.07871153205633163,-0.9934919476509094
1785448827563751500,0.02270915731787682,0.07452152669429779,-0.9945087432861328
1785448827563796800,0.02092426829040051,0.07172296941280365,-0.9946518540382385
1785448827583707400,0.02086233720183372,0.07347150146961212,-0.994587779045105
1785448827583738300,0.02001502737402916,0.07469990849494934,-0.9943291544914246
1785448827603658200,0.01931662298738956,0.07410824298858643,-0.9937580227851868
1785448827603684300,0.01913862489163876,0.06939870119094849,-0.9944446682929993
1785448827623619300,0.01892201229929924,0.0646921694278717,-0.995269238948822
1785448827623726700,0.0192407201975584,0.06412054598331451,-0.9954588413238525
1785448827643710400,0.0200220737606287,0.06773854047060013,-0.9949482083320618
1785448827643751700,0.02040220238268375,0.07225682586431503,-0.994786262512207
1785448827663612600,0.02227789908647537,0.07580003142356873,-0.9936764240264893
1785448827663668900,0.02385097742080688,0.079301618039608,-0.9932938814163208
1785448827683588600,0.02510839328169823,0.0856887549161911,-0.9933401346206665
1785448827683640400,0.02435540035367012,0.09011220932006836,-0.9929983019828796
1785448827703614300,0.02396742813289165,0.08722566813230515,-0.9932836890220642
1785448827703643100,0.02516330033540726,0.0761614665389061,-0.9943100214004517
1785448827723589800,0.02574421837925911,0.07160164415836334,-0.9947963356971741
1785448827723639600,0.02457552030682564,0.07000241428613663,-0.9945342540740967
1785448827743539700,0.02396837063133717,0.07380875945091248,-0.9942253828048706
1785448827743579600,0.02091316133737564,0.07284016162157059,-0.9942847490310669
1785448827763521500,0.02132667228579521,0.07097910344600677,-0.9939905405044556
1785448827763555500,0.02011326141655445,0.06773076206445694,-0.9942352771759033
1785448827783661100,0.02083138003945351,0.06864628195762634,-0.9944756627082825
1785448827783730400,0.02118556760251522,0.07076859474182129,-0.9943200945854187
1785448827803504900,0.02247185446321964,0.07140722870826721,-0.9943675398826599
1785448827803552100,0.02239525131881237,0.0720810741186142,-0.9947169423103333
1785448827823613500,0.02196036465466022,0.07262498140335083,-0.9951984882354736
1785448827823662700,0.02073643729090691,0.0712994709610939,-0.9944614171981812
1785448827843516100,0.02159739658236504,0.07041928172111511,-0.9950689673423767
1785448827843552500,0.02189555950462818,0.06640943884849548,-0.9954620599746704
1785448827863499300,0.02279180474579334,0.05922213941812515,-0.9959894418716431
1785448827863538700,0.02330741845071316,0.06088441982865334,-0.9957102537155151
1785448827883455300,0.022228779271245,0.06438940763473511,-0.9949703216552734
1785448827883480500,0.02053214982151985,0.0690799281001091,-0.994065523147583
1785448827903460100,0.01998642645776272,0.07023552805185318,-0.9951571822166443
1785448827903512300,0.02137754857540131,0.07076849043369293,-0.9947565197944641
1785448827923472700,0.02369650453329086,0.069408118724823,-0.9945788979530334
1785448827923539200,0.02376349270343781,0.07152274250984192,-0.9943042993545532
1785448827943540900,0.02519445493817329,0.07140953093767166,-0.9938034415245056
1785448827943566400,0.02500962652266026,0.06722558289766312,-0.9951869249343872
1785448827963536900,0.02775226533412933,0.06374543160200119,-0.9961027503013611
1785448827963575100,0.02548550628125668,0.07207034528255463,-0.9932527542114258
1785448827983426300,0.02812669239938259,0.08693050593137741,-0.9895087480545044
1785448827983458000,0.03105742484331131,0.09285243600606918,-0.9890037178993225
1785448828003465800,0.0274584423750639,0.1081849858164787,-0.9932960867881775
1785448828003496800,0.02368507348001003,0.1047440245747566,-0.9939849376678467
1785448828023410300,0.02992216683924198,0.09958099573850632,-0.9949830174446106
1785448828023447700,0.04593991115689278,0.122672438621521,-0.9915351867675781
1785448828043417200,0.0337860994040966,0.08085499703884125,-0.9923709034919739
1785448828043476400,0.02942970208823681,0.0701681524515152,-0.9921203255653381
1785448828063379100,0.01462629809975624,0.0572483167052269,-0.9944115281105042
1785448828063413600,-0.01201629359275103,0.0233400110155344,-0.9973353743553162
1785448828083321600,-0.005747660994529724,-0.006719142198562622,-1.005113840103149
1785448828083363300,0.01124704722315073,0.009959720075130463,-1.003105163574219
1785448828103368100,0.007533128373324871,0.04242708906531334,-0.9981592893600464
1785448828103423700,0.02032209560275078,0.07121089845895767,-0.9914911389350891
1785448828123349800,0.02555011957883835,0.07153074443340302,-0.9926740527153015
1785448828123396500,0.02303620055317879,0.06422454863786697,-0.9968669414520264
1785448828143273500,0.02739885821938515,0.06664565950632095,-0.9959433078765869
1785448828143300200,0.03829820826649666,0.07912509888410568,-0.9916861653327942
1785448828163344800,0.02155132405459881,0.08592580258846283,-0.9924061298370361
1785448828163385500,0.0251282062381506,0.08111988008022308,-0.9929741621017456
1785448828183312700,0.02915517799556255,0.07729009538888931,-0.9930853843688965
1785448828183405800,0.02767978794872761,0.07941769808530807,-0.9927157163619995
1785448828203250900,0.02739249914884567,0.0796365961432457,-0.9929186105728149
1785448828203304600,0.02598604746162891,0.0788840651512146,-0.9932022094726562
1785448828223277000,0.02524573914706707,0.07698493450880051,-0.993810772895813
1785448828223306000,0.02491621859371662,0.07192892581224442,-0.9954977631568909
1785448828243275100,0.02788077108561993,0.07325243949890137,-0.9942004680633545
1785448828243306200,0.02550750970840454,0.07384205609560013,-0.9949471354484558
1785448828263277300,0.02446941658854485,0.07486262917518616,-0.9945008754730225
1785448828263317300,0.02426107972860336,0.07707212865352631,-0.9934783577919006
1785448828283218000,0.02620301395654678,0.07806386053562164,-0.9933247566223145
1785448828283257200,0.02764111012220383,0.07470668107271194,-0.9939728975296021
1785448828303234000,0.02908208034932613,0.07437688112258911,-0.9935821294784546
1785448828303263600,0.03037427179515362,0.07581514120101929,-0.9931282997131348
1785448828323248700,0.03120600245893002,0.07603731751441956,-0.9934165477752686
1785448828323284200,0.02866843901574612,0.07654259353876114,-0.9934004545211792
1785448828343203300,0.02913093939423561,0.0771431177854538,-0.9938735365867615
1785448828343233600,0.02824865095317364,0.07751775532960892,-0.9935585856437683
1785448828363194300,0.02675129286944866,0.0769009068608284,-0.9934116005897522
1785448828363220000,0.02884937822818756,0.07569798082113266,-0.9948146939277649
1785448828383186300,0.02911453135311604,0.08196192979812622,-0.9946841597557068
1785448828383234400,0.0319504551589489,0.0904676616191864,-0.9926797151565552
1785448828403178300,0.03497615456581116,0.08886865526437759,-0.9926376938819885
1785448828403206400,0.03206020221114159,0.09831201285123825,-0.9931188821792603
1785448828423076200,0.02646399475634098,0.103352814912796,-0.9950428009033203
1785448828423112600,0.03038916550576687,0.1105035468935966,-0.9907380342483521
1785448828443164000,0.02627118118107319,0.08392415940761566,-0.9929300546646118
1785448828443201100,0.0258167814463377,0.06855245679616928,-0.9946024417877197
1785448828463042500,0.01929683797061443,0.05626464262604713,-0.9932826161384583
1785448828463204600,0.01545551512390375,0.04103542864322662,-0.9939363598823547
1785448828483071600,0.01878074929118156,0.05252143368124962,-0.9946649670600891
1785448828483114000,0.02392123080790043,0.05713559314608574,-0.9956325888633728
1785448828504108000,0.02557962015271187,0.06111792847514153,-0.9959895014762878
1785448828504139900,0.02453888393938541,0.06574958562850952,-0.9959688782691956
1785448828524023700,0.02637721784412861,0.06797489523887634,-0.9958885908126831
1785448828524052600,0.02742958068847656,0.06916795670986176,-0.9942198991775513
1785448828544099100,0.02694488689303398,0.07129573822021484,-0.9949251413345337
1785448828544159500,0.02730454318225384,0.07295858114957809,-0.9947514533996582
1785448828564106300,0.02969303727149963,0.07262615114450455,-0.9941037893295288
1785448828564147900,0.03123115561902523,0.07525402307510376,-0.9950169920921326
1785448828584090400,0.03530453518033028,0.07603267580270767,-0.9955111145973206
1785448828584183000,0.03652242943644524,0.08558022975921631,-0.9940563440322876
1785448828604020000,0.02030229009687901,0.09240103513002396,-0.9926313757896423
1785448828604055700,0.01896204985678196,0.07604074478149414,-0.9930779933929443
1785448828624041900,0.02559450082480907,0.07152526080608368,-0.991921603679657
1785448828624077100,0.02377690747380257,0.07550767064094543,-0.9922359585762024
1785448828643994300,0.02388765849173069,0.06894106417894363,-0.9935827851295471
1785448828644032400,0.02635031566023827,0.06480062007904053,-0.9947561025619507
1785448828664010100,0.02447458542883396,0.0681530237197876,-0.9953470230102539
1785448828664046500,0.0239591971039772,0.06893039494752884,-0.9950939416885376
1785448828684049700,0.02707642316818237,0.06676599383354187,-0.9951477646827698
1785448828684103000,0.0280897282063961,0.06787053495645523,-0.9954780340194702
1785448828703997100,0.02920352481305599,0.07192596048116684,-0.9951373934745789
1785448828704027500,0.03035289794206619,0.07662738114595413,-0.9946094751358032
1785448828723937500,0.03141358494758606,0.081085205078125,-0.9939720034599304
1785448828724024700,0.02842865325510502,0.08343342691659927,-0.9928684830665588
1785448828743964100,0.02914971299469471,0.08425943553447723,-0.9934560060501099
1785448828743991300,0.02675307169556618,0.08658278733491898,-0.9934250116348267
1785448828763958100,0.02722200751304626,0.08136682957410812,-0.9926718473434448
1785448828763998100,0.03250784054398537,0.0794326588511467,-0.9941822290420532
1785448828783914600,0.03315115720033646,0.08409883081912994,-0.9937508106231689
1785448828783977700,0.02847987785935402,0.08439274877309799,-0.9939246773719788
1785448828803878900,0.03433733060956001,0.08839551359415054,-0.9932698607444763
1785448828803927500,0.03454707190394402,0.07930994033813477,-0.9936286211013794
1785448828823927200,0.03825904428958893,0.08792233467102051,-0.993625819683075
1785448828823986100,0.03149639815092087,0.08741292357444763,-0.9920973181724548
1785448828843908500,0.03040059842169285,0.08088047057390213,-0.993075430393219
1785448828843941400,0.02529190294444561,0.06853782385587692,-0.9952619075775146
1785448828863876900,0.01789557561278343,0.05342768132686615,-0.9955973029136658
1785448828863908900,0.0182962603867054,0.06053191050887108,-0.9930920600891113
1785448828883890300,0.01673543453216553,0.05527977645397186,-0.9946140050888062
1785448828883924600,0.01856007240712643,0.05568759515881538,-0.995966374874115
1785448828903843600,0.01650617271661758,0.05541529878973961,-0.9963594675064087
1785448828903908600,0.01671296358108521,0.06430947780609131,-0.9954779744148254
1785448828923877400,0.02033017016947269,0.074103944003582,-0.9948840141296387
1785448828923943900,0.0231762956827879,0.07994945347309113,-0.9943290948867798
1785448828943902800,0.02614003419876099,0.07303544133901596,-0.9945420622825623
1785448828943941500,0.02523989416658878,0.06878905743360519,-0.9948363304138184
1785448828963904900,0.02211915515363216,0.06516826152801514,-0.9952418804168701
1785448828963941500,0.02272476814687252,0.06679795682430267,-0.9952457547187805
1785448828983979600,0.0223535317927599,0.07129929214715958,-0.995430052280426
1785448828984014900,0.02686095237731934,0.07281002402305603,-0.9948124885559082
1785448829003840500,0.02900000289082527,0.06906166672706604,-0.9944179058074951
1785448829003872100,0.03300140053033829,0.06350666284561157,-0.9943640232086182
1785448829023766200,0.03145264461636543,0.06537657976150513,-0.9935759902000427
1785448829023821800,0.03029663860797882,0.07159002125263214,-0.9936575293540955
1785448829043708100,0.02471873164176941,0.06977542489767075,-0.9948101043701172
1785448829043739700,0.02317328937351704,0.06307303160429001,-0.9950387477874756
1785448829063737100,0.0207089725881815,0.05854343622922897,-0.9962372183799744
1785448829063793600,0.02192103117704391,0.05997418239712715,-0.995992124080658
1785448829083750200,0.02498604543507099,0.06114103272557259,-0.9954549670219421
1785448829083778600,0.02875038608908653,0.06494089215993881,-0.9947559833526611
1785448829103829900,0.02914467640221119,0.06771454960107803,-0.9951757192611694
1785448829103860300,0.03354103863239288,0.06874608248472214,-0.9946635961532593
1785448829123707800,0.03707964718341827,0.06952857971191406,-0.9946768283843994
1785448829123741100,0.0335126630961895,0.06660096347332001,-0.9952816367149353
1785448829143732200,0.02891519106924534,0.066742904484272,-0.9946290254592896
1785448829143764700,0.02797381952404976,0.0751115009188652,-0.9924963712692261
1785448829163789300,0.0241632591933012,0.07956409454345703,-0.9920046329498291
1785448829163823400,0.02399733662605286,0.08047389984130859,-0.9922904372215271
1785448829183690600,0.02534924820065498,0.0787779912352562,-0.9938121438026428
1785448829183719100,0.02734439820051193,0.07253754138946533,-0.9947826862335205
1785448829203664200,0.02709167450666428,0.06791141629219055,-0.9954564571380615
1785448829203693900,0.0270194448530674,0.07053368538618088,-0.9954306483268738
1785448829223644600,0.02556662634015083,0.07700435072183609,-0.9943497776985168
1785448829223675100,0.02395481057465076,0.07980719953775406,-0.9936259388923645
1785448829243630700,0.02928707934916019,0.07255493849515915,-0.9937229752540588
1785448829243661400,0.02703163586556911,0.06876911967992783,-0.9946903586387634
1785448829263715300,0.02374471351504326,0.05484633892774582,-0.9959643483161926
1785448829263750400,0.02446449734270573,0.0583159476518631,-0.9967645406723022
1785448829283579600,0.02579993568360806,0.0632457435131073,-0.9957678318023682
1785448829283628900,0.03004581667482853,0.06847601383924484,-0.9939658045768738
1785448829303665400,0.028061643242836,0.07222563028335571,-0.9934272766113281
1785448829303725700,0.02377613261342049,0.07351529598236084,-0.9930433630943298
1785448829323611500,0.02265150845050812,0.07166521996259689,-0.9945762753486633
1785448829323693700,0.01805106364190578,0.06781528145074844,-0.9968327879905701
1785448829343601800,0.02021199651062489,0.07102688401937485,-0.9958447217941284
1785448829343635300,0.02563513070344925,0.08029322326183319,-0.9936895370483398
1785448829363557100,0.02613921463489532,0.08337165415287018,-0.9914484024047852
1785448829363600300,0.02789000049233437,0.07769890874624252,-0.9937871098518372
1785448829383544900,0.02983902022242546,0.07559081166982651,-0.9935381412506104
1785448829383633000,0.03014123812317848,0.07389339059591293,-0.9941813349723816
1785448829403533200,0.03145238012075424,0.07111348211765289,-0.9955201745033264
1785448829403589500,0.0327134020626545,0.07179831713438034,-0.9961386322975159
1785448829423524100,0.03684968873858452,0.07975936681032181,-0.9960836172103882
1785448829423583900,0.0345044806599617,0.09538569301366806,-0.9977359175682068
1785448829443538200,0.02790691703557968,0.1236623227596283,-0.9936989545822144
1785448829443575400,0.01287214737385511,0.112460233271122,-0.9848206639289856
1785448829463549800,0.006721055135130882,0.08837871998548508,-0.9868412613868713
1785448829463621600,0.01821649819612503,0.07609983533620834,-0.9939421415328979
1785448829483701000,0.02836631238460541,0.08554769307374954,-0.9965723752975464
1785448829483735200,0.03581319004297256,0.07941017299890518,-0.9977495670318604
1785448829503698300,0.04759706184267998,0.07586775720119476,-1.000473856925964
1785448829503737600,0.04942206665873528,0.0683647096157074,-1.005755543708801
1785448829523495800,0.04735972359776497,0.05823862180113792,-1.010923981666565
1785448829523538600,0.03618911281228065,0.0644541010260582,-1.014641880989075
1785448829543453100,-0.01725615561008453,0.105854257941246,-0.9781224131584167
1785448829543500300,-0.02456285059452057,0.1212656274437904,-0.9521551132202148
1785448829563537200,0.01191566325724125,0.09063860028982162,-0.9808399081230164
1785448829563626600,0.01530276425182819,0.08517398685216904,-0.9909538626670837
1785448829583408700,0.01260619424283504,0.1009543165564537,-0.986106812953949
1785448829583452800,0.01549342274665833,0.1155800744891167,-0.989305853843689
1785448829603415300,0.02254838310182095,0.1002140268683434,-0.995927095413208
1785448829603469700,0.02525350637733936,0.09069037437438965,-0.999775230884552
1785448829623433500,0.01515985559672117,0.09674789011478424,-0.9946050047874451
1785448829623465500,0.01238744240254164,0.08567507565021515,-0.9926232099533081
1785448829643412300,0.01118529681116343,0.08393792062997818,-0.9978571534156799
1785448829643452800,0.01207658369094133,0.09286022186279297,-0.9940383434295654
1785448829663468000,0.02012963965535164,0.09508680552244186,-0.9912320971488953
1785448829663511300,0.02321748621761799,0.1017549708485603,-0.9897311329841614
1785448829683387000,0.01480062864720821,0.09816998988389969,-0.9897410273551941
1785448829683454400,0.0204633604735136,0.103684701025486,-0.9903602004051208
1785448829703329800,0.01627491973340511,0.1035393327474594,-0.9906299710273743
1785448829703411400,0.01832356117665768,0.1045011430978775,-0.9884597659111023
1785448829723345300,0.01254473533481359,0.1037346944212914,-0.9907505512237549
1785448829723377100,0.004957856144756079,0.1008362174034119,-0.996259868144989
1785448829743349900,0.0160724800080061,0.09761270880699158,-0.9906112551689148
1785448829743391300,0.02186043001711369,0.09065787494182587,-0.9951474666595459
1785448829763316600,0.02155928127467632,0.0849250927567482,-0.9895347952842712
1785448829763382900,0.03318788483738899,0.09073176234960556,-0.9894806742668152
1785448829783338400,0.02717024832963943,0.09199853986501694,-0.9910598993301392
1785448829783380000,0.01930318400263786,0.0937577486038208,-0.9869612455368042
1785448829803282100,0.01351008657366037,0.09849556535482407,-0.9839624762535095
1785448829803313000,0.01583372429013252,0.09638617187738419,-0.9921665787696838
1785448829823258600,0.01509900577366352,0.09506028890609741,-0.9955509305000305
1785448829823293500,0.01855365931987762,0.09395518898963928,-0.9967705011367798
1785448829843221500,0.01893662475049496,0.0929676815867424,-0.9959160685539246
1785448829843255500,0.01871386915445328,0.09027427434921265,-0.9887875318527222
1785448829863279400,0.01477305125445127,0.08972242474555969,-0.9841893911361694
1785448829863327900,0.009668532758951187,0.09616579115390778,-0.9915374517440796
1785448829883292400,0.01288484316319227,0.1003624126315117,-0.9919325709342957
1785448829883351900,0.009975135326385498,0.1001304164528847,-0.9918127059936523
1785448829903262900,0.005882341880351305,0.09889283776283264,-0.9907122850418091
1785448829903322000,0.00154678279068321,0.09572817385196686,-0.9886121153831482
1785448829923223900,0.01242721639573574,0.09719093143939972,-0.9870820045471191
1785448829923254800,0.02098637260496616,0.09093686938285828,-0.9903880953788757
1785448829943223600,0.0264462623745203,0.08265761286020279,-0.9936828017234802
1785448829943259100,0.03211061656475067,0.07091432809829712,-0.9992401003837585
1785448829963188200,0.0408819243311882,0.07112669944763184,-1.001143097877502
1785448829963225200,0.04111776500940323,0.07503120601177216,-1.00012195110321
1785448829983169100,0.03394678235054016,0.07597800344228745,-0.9975847601890564
1785448829983210800,0.02488270774483681,0.0784938856959343,-0.9962416291236877
1785448830003208500,0.01880401745438576,0.08082626760005951,-0.9924943447113037
1785448830003245300,0.02107394672930241,0.07723519206047058,-0.9920749068260193
1785448830023170000,0.02171510085463524,0.0694839134812355,-0.9951198697090149
1785448830023208500,0.02245423756539822,0.0675785169005394,-0.996258020401001
1785448830043109000,0.0218032319098711,0.06956229358911514,-0.9963681697845459
1785448830043140400,0.02507821284234524,0.07061858475208282,-0.9952950477600098
1785448830063176100,0.0250103585422039,0.06807725131511688,-0.9957076907157898
1785448830063218200,0.02937358990311623,0.06793075799942017,-0.995755136013031
1785448830083084200,0.032685287296772,0.06706015765666962,-0.9960479736328125
1785448830083116800,0.03653647378087044,0.07026674598455429,-0.9942516684532166
1785448830103109100,0.03469300270080566,0.07787506282329559,-0.9942705631256104
1785448830103146000,0.02638906426727772,0.08057567477226257,-0.9941686987876892
1785448830124106200,0.01923095993697643,0.08400741219520569,-0.9920918345451355
1785448830124138900,0.01515647303313017,0.08397281169891357,-0.9935635328292847
1785448830144082100,0.02098800800740719,0.07725369930267334,-0.9937573075294495
1785448830144123600,0.03257771208882332,0.06660257279872894,-0.9939021468162537
1785448830164054500,0.04019251465797424,0.06038022041320801,-0.9943669438362122
1785448830164087800,0.03882787749171257,0.06489130109548569,-0.9951643943786621
1785448830184092400,0.03642240911722183,0.0768342986702919,-0.9942279458045959
1785448830184124900,0.02988761849701405,0.08003458380699158,-0.9935258030891418
1785448830204134900,0.03290701285004616,0.07728278636932373,-0.9930205941200256
1785448830204218700,0.03604802489280701,0.07180695235729218,-0.9926745295524597
1785448830224080500,0.03367014601826668,0.06575824320316315,-0.9948119521141052
1785448830224116700,0.03279225528240204,0.06729085743427277,-0.9959406852722168
1785448830244063600,0.03616209700703621,0.07955437153577805,-0.9939016699790955
1785448830244111600,0.02585423551499844,0.07358438521623611,-0.9939289689064026
1785448830264018700,0.02759957313537598,0.0726642906665802,-0.9934579133987427
1785448830264056900,0.03110624104738235,0.07603200525045395,-0.9933642148971558
1785448830284010200,0.03015048243105412,0.07696732878684998,-0.9941958785057068
1785448830284061600,0.02946749143302441,0.07610926777124405,-0.9949169158935547
1785448830304101500,0.03132082149386406,0.07854200899600983,-0.9943083524703979
1785448830304147600,0.04025626182556152,0.0922231450676918,-0.994015097618103
1785448830324083700,0.04730379208922386,0.09980908781290054,-0.9935600161552429
1785448830324146600,0.04690881818532944,0.08296700567007065,-0.99345463514328
1785448830344036600,0.04520788788795471,0.08399416506290436,-0.993713915348053
1785448830344070500,0.0397016853094101,0.08541189134120941,-0.9938328862190247
1785448830363907400,0.03605927154421806,0.08329690247774124,-0.9943045377731323
1785448830363949400,0.03175381571054459,0.08013907819986343,-0.994536817073822
1785448830383936300,0.01929925940930843,0.06612182408571243,-0.9942309856414795
1785448830383964400,0.009232553653419018,0.04030299186706543,-0.9948954582214355
1785448830403944700,0.006115963216871023,0.02434456348419189,-0.9951400756835938
1785448830403976800,-0.0007401836919598281,0.010035858489573,-0.9959195852279663
1785448830423892400,-0.00799948163330555,0.005895479582250118,-0.9965233206748962
1785448830423918800,-0.002569854259490967,0.01098189782351255,-0.9982946515083313
1785448830443905400,0.006577425170689821,0.01694175042212009,-0.9983099102973938
1785448830443942900,0.01233956031501293,0.02193958684802055,-0.9973538517951965
1785448830463900700,0.01673909276723862,0.02192899025976658,-0.9965474009513855
1785448830463937900,0.01453138701617718,0.02227001264691353,-0.9967707991600037
1785448830483840000,0.01146103907376528,0.02672679722309113,-0.9976485371589661
1785448830483887500,0.01459959428757429,0.03208325803279877,-0.9980471730232239
1785448830503868000,0.01311000157147646,0.03113276325166225,-0.9966588616371155
1785448830503905300,0.005701375659555197,0.02184541895985603,-0.9964666962623596
1785448830523857500,0.001398717286065221,0.0151931457221508,-0.9959459900856018
1785448830523883000,0.004236902575939894,0.01806791126728058,-0.9962586760520935
1785448830543836600,0.01197561714798212,0.02964205108582973,-0.996581494808197
1785448830543866100,0.01903081126511097,0.04436856135725975,-0.9979763031005859
1785448830563807400,0.02527688071131706,0.05216626077890396,-0.9983340501785278
1785448830563844500,0.02394960448145866,0.04439134895801544,-0.9973697066307068
1785448830583803500,0.01464406121522188,0.02975462190806866,-0.9972272515296936
1785448830583837000,0.01007302105426788,0.01843496039509773,-0.996648907661438
1785448830603761000,0.008389783091843128,0.01988658867776394,-0.9967082142829895
1785448830603795300,0.01268552616238594,0.03150467574596405,-0.9968000650405884
1785448830623763800,0.02034081518650055,0.04542466253042221,-0.9974087476730347
1785448830623827900,0.02360072731971741,0.05374022945761681,-0.9983813762664795
1785448830643709900,0.02829638496041298,0.05270460993051529,-0.9972174167633057
1785448830643730400,0.02729120664298534,0.03206399455666542,-0.9967305660247803
1785448830663784200,0.0198989138007164,0.009686622768640518,-0.995936393737793
1785448830663820000,0.01214181445538998,-0.007819170132279396,-0.9970605373382568
1785448830683718500,0.0135681414976716,-0.0132591724395752,-0.9961169362068176
1785448830683757900,0.01438900269567966,-0.005736325401812792,-0.9949600696563721
1785448830703667100,0.01453838124871254,0.006428666412830353,-0.9972416758537292
1785448830703841600,0.01901171542704105,0.01771417260169983,-0.9976628422737122
1785448830723674800,0.0240352600812912,0.02204820141196251,-0.996964693069458
1785448830723767000,0.02336599119007587,0.02078337781131268,-0.9963626861572266
1785448830743662900,0.02358403429389,0.013454869389534,-0.9960486888885498
1785448830743688800,0.02448293752968311,0.005723694339394569,-0.9956144690513611
1785448830763767300,0.02517310529947281,0.002298069885000587,-0.9950783848762512
1785448830763828500,0.0274231880903244,0.007476361934095621,-0.9940149188041687
1785448830783706900,0.02504054643213749,0.01809908077120781,-0.9954435229301453
1785448830783751000,0.02091273106634617,0.02895996160805225,-0.9984269142150879
1785448830803675100,0.02079540118575096,0.03094204887747765,-1.000049591064453
1785448830803706300,0.01986895501613617,0.0262423362582922,-0.9992635250091553
1785448830823620700,0.02357601933181286,0.01972826384007931,-0.9970105290412903
1785448830823674500,0.02919610403478146,0.01131580956280231,-0.9938503503799438
1785448830843609800,0.02926032803952694,0.005412423983216286,-0.993297278881073
1785448830843643800,0.02847788482904434,0.007768706884235144,-0.9940019249916077
1785448830863634700,0.02751670219004154,0.0123154129832983,-0.9947085380554199
1785448830863669700,0.02374965138733387,0.01551778428256512,-0.9957893490791321
1785448830883558900,0.01811823435127735,0.02065113000571728,-0.9975296258926392
1785448830883586800,0.0152082834392786,0.02761606499552727,-0.9984795451164246
1785448830903617200,0.01555360201746225,0.0381876565515995,-0.9989382028579712
1785448830903673400,0.01782959699630737,0.04657838866114616,-0.9991766214370728
1785448830923724600,0.01797050051391125,0.04795226082205772,-0.9996123313903809
1785448830923757000,0.02102550491690636,0.04406778514385223,-0.9987544417381287
1785448830943555800,0.02467279508709908,0.03813832625746727,-0.9971731901168823
1785448830943584700,0.0239588413387537,0.033383809030056,-0.996353805065155
1785448830963596200,0.02491389401257038,0.03105071745812893,-0.9959030747413635
1785448830963636600,0.02797764353454113,0.03142758831381798,-0.9951489567756653
1785448830983564200,0.0298069454729557,0.03128769993782043,-0.9947519302368164
1785448830983599200,0.03041775710880756,0.02757387794554234,-0.9949066638946533
1785448831003559900,0.02922105044126511,0.02257189713418484,-0.9941442608833313
1785448831003626700,0.02721098251640797,0.02048170194029808,-0.9943109750747681
1785448831023542100,0.02194839343428612,0.02156667411327362,-0.9961696863174438
1785448831023610400,0.01926055178046227,0.02656604163348675,-0.9971886277198792
1785448831043430800,0.01836609467864037,0.03392763808369637,-0.9973434805870056
1785448831043463700,0.01709990948438644,0.04079383239150047,-0.9979096055030823
1785448831063584400,0.01907350122928619,0.04718164727091789,-0.9977542757987976
1785448831063654600,0.02204116433858871,0.0519099235534668,-0.9976108074188232
1785448831083566700,0.02675588242709637,0.05332013592123985,-0.997133195400238
1785448831083623300,0.02944963797926903,0.0485655851662159,-0.9960029125213623
1785448831103469400,0.02853028848767281,0.04209635406732559,-0.9952861070632935
1785448831103499900,0.02696741931140423,0.04060487821698189,-0.9956115484237671
1785448831123425600,0.02583909593522549,0.04103609547019005,-0.9957423806190491
1785448831123455700,0.02278227917850018,0.03869157284498215,-0.9962154030799866
1785448831143427100,0.01750748977065086,0.03737735375761986,-0.9963768720626831
1785448831143455000,0.01822797954082489,0.041230708360672,-0.9968811273574829
1785448831163397300,0.02219654992222786,0.04799739271402359,-0.9970788955688477
1785448831163429500,0.02569220028817654,0.0526648685336113,-0.9962189197540283
1785448831183584100,0.02726363949477673,0.05326287448406219,-0.9961534738540649
1785448831183632200,0.02818033844232559,0.04841635748744011,-0.9955406785011292
1785448831203425800,0.02622489258646965,0.03894959762692451,-0.9954258799552917
1785448831203472000,0.02296456694602966,0.03283179551362991,-0.9952730536460876
1785448831223438400,0.02157313749194145,0.03149038925766945,-0.9959800839424133
1785448831223524000,0.02049010805785656,0.03666256368160248,-0.9956918954849243
1785448831243397700,0.02208911627531052,0.04625248163938522,-0.9962774515151978
1785448831243456900,0.02416997216641903,0.05375560373067856,-0.9960108399391174
1785448831263340900,0.02310522273182869,0.05723907053470612,-0.9957114458084106
1785448831263377000,0.02385921403765678,0.05869849026203156,-0.9957744479179382
1785448831283329600,0.02474646456539631,0.05876902490854263,-0.9956502914428711
1785448831283417000,0.02649452909827232,0.0560033768415451,-0.9959759116172791
1785448831303258200,0.02714385837316513,0.05068878084421158,-0.9960260391235352
1785448831303296600,0.02749393507838249,0.04320698603987694,-0.9952714443206787
1785448831323350700,0.02655460312962532,0.03956538066267967,-0.9950814843177795
1785448831323386200,0.02632342651486397,0.04208959639072418,-0.9953600764274597
1785448831343342000,0.02673670090734959,0.0464225672185421,-0.995424211025238
1785448831343399900,0.02537540532648563,0.05062855780124664,-0.9956727623939514
1785448831363329500,0.02277369983494282,0.05088192224502563,-0.9964518547058105
1785448831363361800,0.01898420788347721,0.04819495230913162,-0.9964835047721863
1785448831383330100,0.01709676533937454,0.04764256253838539,-0.9964442849159241
1785448831383360000,0.01998552121222019,0.04860954359173775,-0.9959819912910461
1785448831403301900,0.02244170755147934,0.04933670908212662,-0.9956873059272766
1785448831403331900,0.02539322711527348,0.04861848428845406,-0.9954313039779663
1785448831423284600,0.02698446437716484,0.0456513911485672,-0.9949541091918945
1785448831423336900,0.02463696151971817,0.04214280098676682,-0.9952288269996643
1785448831443228100,0.02315385639667511,0.0402289405465126,-0.9957497119903564
1785448831443270400,0.02183611132204533,0.04224859923124313,-0.9957205057144165
1785448831463225500,0.02257017977535725,0.04715241491794586,-0.9961737394332886
1785448831463274900,0.02179035730659962,0.04884563386440277,-0.9961066842079163
1785448831483180000,0.0212553720921278,0.04509026184678078,-0.9962612986564636
1785448831483218800,0.02009645290672779,0.04107842966914177,-0.9961720108985901
1785448831503197000,0.02095981501042843,0.04127803444862366,-0.9960274696350098
1785448831503232400,0.02403934113681316,0.04132773354649544,-0.9965781569480896
1785448831523222100,0.02188011445105076,0.03955761715769768,-0.9961678981781006
1785448831523251500,0.01783070527017117,0.03794050961732864,-0.9964044690132141
1785448831543155200,0.01750023290514946,0.040981724858284,-0.9962478280067444
1785448831543210000,0.01758304238319397,0.04862565547227859,-0.995718777179718
1785448831563197100,0.01878605224192142,0.05789834633469582,-0.9959153532981873
1785448831563237400,0.02095768228173256,0.06615027785301208,-0.996168315410614
1785448831583142800,0.02402308210730553,0.06929007172584534,-0.9958249926567078
1785448831583178700,0.0238341186195612,0.06358380615711212,-0.9954881072044373
1785448831603142900,0.02161195874214172,0.05553092435002327,-0.996170699596405
1785448831603204700,0.02373400889337063,0.0531110092997551,-0.9955977201461792
1785448831624145100,0.02629803866147995,0.05397344008088112,-0.9952552318572998
1785448831624244100,0.02473343908786774,0.05295008420944214,-0.9956411123275757
1785448831644082800,0.01942305453121662,0.0500335618853569,-0.9958270192146301
1785448831644112000,0.01673369668424129,0.04838285967707634,-0.9958821535110474
1785448831664108500,0.01631315238773823,0.04879376292228699,-0.9959880113601685
1785448831664165600,0.01797087118029594,0.05189333111047745,-0.9959514737129211
1785448831684041700,0.02186865732073784,0.0557878389954567,-0.9960866570472717
1785448831684094100,0.02588768862187862,0.05848380923271179,-0.995736300945282
1785448831704051300,0.02518411353230476,0.05525071918964386,-0.9964632391929626
1785448831704103900,0.01915687881410122,0.04438068717718124,-0.9961285591125488
1785448831724052500,0.01452503353357315,0.0346314013004303,-0.9963818788528442
1785448831724086200,0.01342426333576441,0.03574191033840179,-0.9959228038787842
1785448831744265400,0.01883867383003235,0.0439225509762764,-0.9954766631126404
1785448831744324100,0.02055369503796101,0.04823244735598564,-0.996165931224823
1785448831764041300,0.01894786953926086,0.04884622618556023,-0.9959110021591187
1785448831764088700,0.01901556551456451,0.04633705317974091,-0.9963905811309814
1785448831784055400,0.0202113576233387,0.04645098745822906,-0.9962930083274841
1785448831784110100,0.02145031467080116,0.05007957294583321,-0.995902955532074
1785448831804056600,0.02131453901529312,0.05313511937856674,-0.9960216879844666
1785448831804100100,0.01752414368093014,0.05107155814766884,-0.9961743950843811
1785448831823999100,0.01530609559267759,0.0467214547097683,-0.9961543679237366
1785448831824060100,0.01606696844100952,0.0403204932808876,-0.9965458512306213
1785448831843987100,0.01631821319460869,0.02929800935089588,-0.9976614117622375
1785448831844020200,0.01230647973716259,0.01945005543529987,-0.9969560503959656
1785448831863963400,0.01022201776504517,0.01884783990681171,-0.9981186985969543
1785448831864005200,0.01218020636588335,0.01417044177651405,-0.9961930513381958
1785448831883953200,0.008726302534341812,0.01579444669187069,-0.9961358308792114
1785448831884013000,0.007773957215249538,0.0191479679197073,-0.9963054060935974
1785448831903976500,0.007067183498293161,0.03179679811000824,-0.998388409614563
1785448831904056500,0.01341588888317347,0.0415332168340683,-0.9990337491035461
1785448831923928500,0.01174502167850733,0.04451796412467957,-1.001278162002563
1785448831923953900,0.003047909354791045,0.0457170195877552,-1.007079720497131
1785448831944015800,0.0007083092350512743,0.0262380950152874,-1.000975012779236
1785448831944050000,0.01870810054242611,-0.004096114076673985,-0.9899101257324219
1785448831963936800,0.03073624521493912,-0.02136275917291641,-0.9840584397315979
1785448831963976000,0.03133025020360947,-0.03016934543848038,-0.9833746552467346
1785448831983896100,0.02221549861133099,-0.03058631531894207,-0.9873140454292297
1785448831983969400,0.02064048498868942,-0.01233483850955963,-0.9933381080627441
1785448832003899400,0.02467918954789639,0.01959831640124321,-0.9988167285919189
1785448832003929800,0.02013011090457439,0.05058040469884872,-1.002847194671631
1785448832023861400,0.01555807795375586,0.06117003783583641,-1.006072402000427
1785448832023900100,0.01806395687162876,0.05600336194038391,-1.004321455955505
1785448832043813400,0.01888704672455788,0.03814145550131798,-1.000934600830078
1785448832043857700,0.01645809970796108,0.01446908339858055,-0.9995214939117432
1785448832063927000,0.01577251218259335,-0.009516074322164059,-0.9947131276130676
1785448832063964500,0.02185682952404022,-0.02211852185428143,-0.9880335330963135
1785448832083833000,0.01876412332057953,-0.02338521927595139,-0.9891809821128845
1785448832083881300,0.01186425611376762,-0.01289097033441067,-0.9953972101211548
1785448832103802900,0.009500759653747082,0.01198746543377638,-0.9991695880889893
1785448832103830600,0.01500152330845594,0.03135000914335251,-1.000327587127686
1785448832123782000,0.01747147366404533,0.03629834577441216,-1.000314712524414
1785448832123828800,0.01561861671507359,0.03026270680129528,-0.9992312788963318
1785448832143774100,0.01336250454187393,0.01692670024931431,-0.9984980821609497
1785448832143819600,0.009959418326616287,0.008657004684209824,-0.9979233145713806
1785448832163739200,0.005609335377812386,0.001165863708592951,-0.996868371963501
1785448832163780700,0.005354288499802351,-0.01005369238555431,-0.9949391484260559
1785448832183691900,0.007675623055547476,-0.012403329834342,-0.9938545227050781
1785448832183726000,0.006433844566345215,-0.0008592931553721428,-0.9966209530830383
1785448832203755700,0.007111744955182076,0.01559949386864901,-0.9991675019264221
1785448832203799000,0.008538061752915382,0.02555533312261105,-0.9999523162841797
1785448832223726800,0.00870897900313139,0.02742817252874374,-1.00019383430481
1785448832223760800,0.006468981504440308,0.0297063160687685,-1.000716090202332
1785448832243714800,0.007138875313103199,0.02003469876945019,-0.9982984066009521
1785448832243744000,0.009759867563843727,0.01838654652237892,-0.9958241581916809
1785448832263768200,0.01301384251564741,0.00891953706741333,-0.994571328163147
1785448832263803400,0.01869905740022659,0.001237239455804229,-0.9934309720993042
1785448832283686400,0.02136399783194065,-0.008301515132188797,-0.9939307570457458
1785448832283717900,0.02292801067233086,-0.02116801962256432,-0.9949789643287659
1785448832303625600,0.01839447766542435,-0.0213029645383358,-0.9967114925384521
1785448832303685800,0.006768209859728813,-0.01212733797729015,-0.9985702633857727
1785448832323715500,-0.000280530919553712,-0.0003566661034710705,-0.9997003674507141
1785448832323744600,-0.0006683371029794216,0.005047078244388103,-0.9997391700744629
1785448832343627500,-0.00115692988038063,0.01096366252750158,-0.9998745918273926
1785448832343657400,-0.001802313374355435,0.01171742379665375,-1.000274777412415
1785448832363625200,0.004473415203392506,0.01753096655011177,-1.000558257102966
1785448832363663700,0.008184660226106644,0.01301910169422626,-0.9970967173576355
1785448832383644900,0.01043232996016741,0.0006692910101264715,-0.9947097897529602
1785448832383705000,0.01154097728431225,-0.007830060087144375,-0.9941459894180298
1785448832403680200,0.01160582061856985,-0.0187001395970583,-0.9940720200538635
1785448832403715100,0.003009791718795896,-0.02321065962314606,-0.9960078001022339
1785448832423582700,0.0001547932042740285,-0.01613882929086685,-0.9973812699317932
1785448832423610900,-0.001559090684168041,-0.005832079332321882,-0.9985509514808655
1785448832443593700,-0.002784403041005135,0.004422231577336788,-0.9986312389373779
1785448832443632900,-0.001728481613099575,0.0110904797911644,-0.9992108941078186
1785448832463663600,-0.0009837881661951542,0.01002576481550932,-0.9988409280776978
1785448832463702300,0.001445454428903759,0.00308093917556107,-0.9969188570976257
1785448832483563700,0.003617396345362067,-0.001752054318785667,-0.9960653781890869
1785448832483617400,0.006044782698154449,-0.007862666621804237,-0.9967324137687683
1785448832503557400,0.007275535725057125,-0.005954074673354626,-0.9972102046012878
1785448832503591400,0.006076551042497158,-0.004425446502864361,-0.9974370002746582
1785448832523494900,0.004513339605182409,-0.006594022735953331,-0.996752917766571
1785448832523524900,0.002512443112209439,-0.007976915687322617,-0.9964800477027893
1785448832543478000,0.0008448325097560883,-0.00662955641746521,-0.9959771633148193
1785448832543527100,-0.0007450651610270143,-0.001143481349572539,-0.9967273473739624
1785448832563479500,-0.001402395311743021,0.005548652727156878,-0.9971345067024231
1785448832563524400,-0.0003111212863586843,0.007077191956341267,-0.9980796575546265
1785448832583548200,-0.0003564119979273528,0.004358624573796988,-0.9979484081268311
1785448832583612500,-0.001417240360751748,0.0014282101765275,-0.9971039891242981
1785448832603469900,-0.002071035094559193,-0.003504281397908926,-0.9972322583198547
1785448832603497300,-0.000543264439329505,-0.01026725489646196,-0.9970242381095886
1785448832623417900,-0.001637969980947673,-0.01545335352420807,-0.9972625970840454
1785448832623464900,-0.006805065087974072,-0.01192434411495924,-0.9984477758407593
1785448832643403600,-0.006780767813324928,0.004858411848545074,-0.9983798265457153
1785448832643430200,-0.009209311567246914,0.02134275250136852,-0.9979654550552368
1785448832663470500,-0.002871998585760593,0.03120096027851105,-0.9986168742179871
1785448832663515000,0.002414552494883537,0.02393013797700405,-0.9989875555038452
1785448832683552000,0.001040626084432006,0.006502753589302301,-0.9969198703765869
1785448832683583500,0.0004456376773305237,-0.009123013354837894,-0.9960737228393555
1785448832703387100,-0.003983250353485346,-0.009776818566024303,-0.9956843852996826
1785448832703415100,-0.003411594545468688,-0.00607069069519639,-0.9970053434371948
1785448832723374400,-0.002813390223309398,0.009290518239140511,-0.998392641544342
1785448832723405000,-0.0003854130336549133,0.0240358505398035,-0.9988681674003601
1785448832743521900,0.001428004004992545,0.02892431244254112,-0.9986724853515625
1785448832743544600,0.006506320089101791,0.02683406323194504,-0.9980792999267578
1785448832763374500,0.01115852687507868,0.02527091279625893,-0.9974977970123291
1785448832763413100,0.01103219110518694,0.02176297456026077,-0.9970434308052063
1785448832783298900,0.009606864303350449,0.02016359381377697,-0.9977391958236694
1785448832783345200,0.002914504380896688,0.006280925124883652,-0.9986913800239563
1785448832803403900,0.001354981912299991,-0.001312389271333814,-0.998405396938324
1785448832803431500,0.01152839325368404,0.00185397919267416,-0.9969013333320618
1785448832823315500,-0.01380481198430061,-0.02073263749480247,-0.9919210076332092
1785448832823365000,-0.006845081225037575,-0.01259968802332878,-0.9954003095626831
1785448832843312000,-0.00222230888903141,-0.01052108593285084,-0.9984777569770813
1785448832843346100,0.007549514062702656,-0.002824572846293449,-0.999415397644043
1785448832863332800,0.003857005387544632,0.003791932249441743,-0.9976680874824524
1785448832863375900,0.0005069379694759846,0.01223319955170155,-0.9972695112228394
1785448832883297500,-0.003494885517284274,0.01718751527369022,-0.996746838092804
1785448832883331500,-0.005126507952809334,0.01179640926420689,-0.9971337914466858
1785448832903281600,-0.003333825850859284,0.006571531761437654,-0.9974832534790039
1785448832903326700,-0.006005928851664066,0.001889915321953595,-0.9977665543556213
1785448832923265800,-0.006071891635656357,0.006878281943500042,-0.9981229901313782
1785448832923302000,0.0005522608407773077,0.01053017657250166,-0.9991848468780518
1785448832943194100,0.00537361204624176,0.0133970994502306,-0.9969534873962402
1785448832943256000,0.01219835784286261,0.01133929193019867,-0.9958603382110596
1785448832963271100,0.01110881008207798,0.01147762965410948,-0.9957355856895447
1785448832963318400,0.005024836864322424,0.01801081746816635,-0.9962251782417297
1785448832983171000,0.003927668090909719,0.02638769336044788,-0.9977973699569702
1785448832983201100,0.001488675829023123,0.03034430183470249,-0.9997090697288513
1785448833003208100,-0.002029815223067999,0.0262245275080204,-0.9992395639419556
1785448833003267300,-0.002660351805388927,0.02013985812664032,-0.9984024167060852
1785448833023174800,-0.001300008851103485,0.005779349710792303,-0.997649073600769
1785448833023231100,-0.001289062900468707,-0.004980576224625111,-0.9962950944900513
1785448833043170300,-0.001505570020526648,-0.00408945931121707,-0.9956175088882446
1785448833043233800,-0.00336172548122704,0.004932642914354801,-0.9965908527374268
1785448833063186000,-0.001676379353739321,0.009735601954162121,-0.9970973134040833
1785448833063255400,0.0004972002352587879,0.0144471786916256,-0.998221755027771
1785448833083208800,-0.003668981837108731,0.01285250019282103,-0.9974464774131775
1785448833083246100,0.002252113074064255,0.01876995153725147,-0.9976784586906433
1785448833104148200,0.007941467687487602,0.01880321465432644,-0.9989696741104126
1785448833104186000,0.007516779005527496,0.01298150513321161,-0.9979866743087769
1785448833124123000,0.00468346243724227,0.01010972820222378,-0.9968779683113098
1785448833124181400,0.001626057783141732,0.01189538184553385,-0.9974254369735718
1785448833144089800,0.0004006157978437841,0.01081602089107037,-0.9972016215324402
1785448833144118800,0.001088838092982769,0.01143193058669567,-0.9965022206306458
1785448833164129300,0.00240476755425334,0.0139107583090663,-0.9966209530830383
1785448833164198400,0.0005039912648499012,0.01524292305111885,-0.9968345165252686
1785448833184022400,-0.002025065245106816,0.0228697843849659,-0.9967893362045288
1785448833184069100,0.003212952753528953,0.02313192002475262,-0.997422993183136
1785448833204042300,0.006654101889580488,0.02545118145644665,-0.9982931017875671
1785448833204069600,0.005702024791389704,0.02049083635210991,-0.9979700446128845
1785448833224066100,0.00120866927318275,0.01639049127697945,-0.9974138140678406
1785448833224103500,-0.002277262276038527,0.01372338086366653,-0.9973978400230408
1785448833244040100,-0.007250873371958733,0.008884417824447155,-0.9969184398651123
1785448833244081400,-0.01267299521714449,0.00603627972304821,-0.997129499912262
1785448833264068300,-0.01631499268114567,0.009657057002186775,-0.9975114464759827
1785448833264134300,-0.01432669069617987,0.01033065840601921,-0.9977269172668457
1785448833284107400,-0.008166377432644367,0.009318613447248936,-0.9975069761276245
1785448833284188100,-0.001580115291289985,0.006820681039243937,-0.9978087544441223
1785448833304037100,-0.003874106099829078,0.003208657493814826,-0.9955342411994934
1785448833304095700,-0.00110147672239691,0.001255220267921686,-0.9962112903594971
1785448833324028700,-0.0003801531565841287,0.002413650508970022,-0.9964491724967957
1785448833324057000,-0.001328518730588257,0.008077728562057018,-0.9972295761108398
1785448833344009800,-0.004797468427568674,0.01613004319369793,-0.9967946410179138
1785448833344078800,-0.003706688992679119,0.01795575767755508,-0.9977133870124817
1785448833363951900,-0.004084177315235138,0.01751234568655491,-0.9972297549247742
1785448833363990400,-0.004557230044156313,0.01204091962426901,-0.9972619414329529
1785448833383924200,-0.01118849962949753,0.009980460628867149,-0.9968072772026062
1785448833383965700,-0.008988506160676479,0.01100312918424606,-0.9980201721191406
1785448833403944900,-0.01564654149115086,0.006597043946385384,-0.9972297549247742
1785448833403980500,-0.01008199527859688,0.01320336200296879,-0.9983625411987305
1785448833423895700,-0.01028775423765182,0.01657434180378914,-0.997119128704071
1785448833423950000,-0.007545956876128912,0.02024504728615284,-0.9964318871498108
1785448833443900600,3.507993096718565e-05,0.02445842884480953,-0.9963054060935974
1785448833443931800,-0.000363746949005872,0.02417346648871899,-0.9961800575256348
1785448833463843900,0.006463297642767429,0.02494454011321068,-0.9961293935775757
1785448833463874500,0.01037736423313618,0.01995274052023888,-0.996529757976532
1785448833483855900,0.01233077794313431,0.01835178397595882,-0.997575044631958
1785448833483897600,0.01138214208185673,0.02316197566688061,-0.9982548952102661
1785448833503856200,0.02110718376934528,0.04129417613148689,-0.9985908269882202
1785448833503908000,0.02516297809779644,0.06056517362594604,-0.9972975254058838
1785448833523918800,0.03099828585982323,0.0844767764210701,-0.9987906217575073
1785448833523975400,0.0387316606938839,0.1131700575351715,-0.994798481464386
1785448833543793500,0.03098619729280472,0.1165650859475136,-0.9865328073501587
1785448833543834700,0.03333008661866188,0.1106051355600357,-0.9874885082244873
1785448833563846800,0.03686511889100075,0.09338018298149109,-0.9910006523132324
1785448833563948200,0.03172707930207253,0.07843241095542908,-0.9951962232589722
1785448833583816600,0.02522535249590874,0.07848629355430603,-0.99551922082901
1785448833583879700,0.02883698605000973,0.0871431902050972,-0.9930157065391541
1785448833603838800,0.0303473137319088,0.0927213728427887,-0.9914262890815735
1785448833603887500,0.03347302600741386,0.08867305517196655,-0.9919257760047913
1785448833623775200,0.03144416958093643,0.07337484508752823,-0.995262622833252
1785448833623807500,0.01651697792112827,0.06349887698888779,-0.995151162147522
1785448833643746500,0.007467691320925951,0.06327906250953674,-0.9944573640823364
1785448833643796700,0.008191502653062344,0.06182492524385452,-0.9953052997589111
1785448833664149400,0.01248989533632994,0.05735159292817116,-0.9968838095664978
1785448833664190900,0.01230007875710726,0.0493483766913414,-0.9972629547119141
1785448833683751900,0.009540658444166183,0.04486111551523209,-0.997468113899231
1785448833683815200,0.008657008409500122,0.05223112553358078,-0.9976990818977356
1785448833703707000,0.01288267597556114,0.06531979143619537,-0.9967168569564819
1785448833703757100,0.01847262680530548,0.08037182688713074,-0.9937542676925659
1785448833723784700,0.02734000608325005,0.08632189780473709,-0.9909690022468567
1785448833723832900,0.02682294882833958,0.08372003585100174,-0.9912067055702209
1785448833743705800,0.02537484467029572,0.08011554181575775,-0.9927114248275757
1785448833743731700,0.02184829860925674,0.07377573102712631,-0.9940053820610046
1785448833763674400,0.02174104005098343,0.06868422776460648,-0.9960383772850037
1785448833763717100,0.01972856558859348,0.06196380779147148,-0.9974697828292847
1785448833783664900,0.01603050716221333,0.06210160627961159,-0.9968781471252441
1785448833783737000,0.014864107593894,0.06857345253229141,-0.9953963756561279
1785448833803673800,0.01816944591701031,0.07864604145288467,-0.9930055737495422
1785448833803704100,0.02050330676138401,0.07881494611501694,-0.9919211864471436
1785448833823632200,0.02046460844576359,0.07969740778207779,-0.9920943379402161
1785448833823661400,0.01718381606042385,0.07737871259450912,-0.9931912422180176
1785448833843629500,0.02130125090479851,0.08350709080696106,-0.9931023716926575
1785448833843688300,0.02844297327101231,0.08253654837608337,-0.993457019329071
1785448833863644700,0.02783134579658508,0.07855045050382614,-0.9949317574501038
1785448833863698900,0.0226343460381031,0.0729888528585434,-0.99625563621521
1785448833883638500,0.01919258572161198,0.07123163342475891,-0.996593713760376
1785448833883675800,0.01949509046971798,0.07718738168478012,-0.9951815009117126
1785448833903557100,0.02194935455918312,0.08457416296005249,-0.9936065077781677
1785448833903584300,0.02228076942265034,0.08810914307832718,-0.9922683238983154
1785448833923557800,0.02408743090927601,0.09038233757019043,-0.9914501905441284
1785448833923596800,0.02235027402639389,0.08707291632890701,-0.9919731020927429
1785448833943597000,0.01773976907134056,0.0788780152797699,-0.9938229918479919
1785448833943627900,0.01255167368799448,0.07552550733089447,-0.9938786029815674
1785448833963527300,0.01212477218359709,0.08300277590751648,-0.9910205006599426
1785448833963569000,0.0192628912627697,0.08931999653577805,-0.9898850321769714
1785448833983511600,0.02697617374360561,0.08149314671754837,-0.9940832257270813
1785448833983543200,0.02301880903542042,0.070107601583004,-0.9964520931243896
1785448834003499700,0.01344863697886467,0.05837790295481682,-0.9975185394287109
1785448834003551900,0.0114642670378089,0.05281729251146317,-0.9986706376075745
1785448834023535900,0.01301206927746534,0.05437065288424492,-0.9982062578201294
1785448834023571600,0.01778826117515564,0.0660497173666954,-0.996497631072998
1785448834043427500,0.01835180073976517,0.07602822780609131,-0.9930474162101746
1785448834043465500,0.01730321533977985,0.08217103779315948,-0.9905996322631836
1785448834063584100,0.01261732913553715,0.08769442141056061,-0.9903961420059204
1785448834063665200,0.01999455131590366,0.09257104247808456,-0.9920952320098877
1785448834083491000,0.02342748455703259,0.08774185180664062,-0.9940570592880249
1785448834083531600,0.02153484709560871,0.08182787895202637,-0.9945797324180603
1785448834103452200,0.02214320562779903,0.08105694502592087,-0.9949542880058289
1785448834103492200,0.02524014189839363,0.07950513809919357,-0.9952136278152466
1785448834123417400,0.02392397820949554,0.07080850750207901,-0.9954500198364258
1785448834123443300,0.01803080923855305,0.0650903657078743,-0.9955558776855469
1785448834143407800,0.01431996002793312,0.06319966912269592,-0.9954178333282471
1785448834143439200,0.01358368620276451,0.0691215842962265,-0.9944265484809875
1785448834163427800,0.01484043058007956,0.07536907494068146,-0.9943050146102905
1785448834163478700,0.01707732491195202,0.0806104987859726,-0.9941996335983276
1785448834183393200,0.01973651722073555,0.07954703271389008,-0.9942254424095154
1785448834183427300,0.02853409014642239,0.07200851291418076,-0.9959825277328491
1785448834203411800,0.01180185750126839,0.057614516466856,-0.9958258867263794
1785448834203472300,0.009445987641811371,0.05398549139499664,-0.9958637356758118
1785448834223353700,0.01083922665566206,0.04826564341783524,-0.99626624584198
1785448834223384900,0.004434521310031414,0.045194111764431,-0.9956135749816895
1785448834243351500,0.005215275101363659,0.04677907377481461,-0.9954975843429565
1785448834243383700,0.006830758415162563,0.04882922396063805,-0.9954766035079956
1785448834263315900,0.009929928928613663,0.05260622128844261,-0.9952914118766785
1785448834263385200,0.01231216359883547,0.04790296778082848,-0.9964629411697388
1785448834283311900,0.008511283434927464,0.04319486767053604,-0.9967847466468811
1785448834283349300,0.002450558356940746,0.04200716316699982,-0.9963994026184082
1785448834303340500,-0.003611886873841286,0.03949612379074097,-0.9971451163291931
1785448834303367200,-0.004064330831170082,0.0427902527153492,-0.9976391792297363
1785448834323870300,-0.0002774043241515756,0.04277334734797478,-0.9976807236671448
1785448834324191000,0.005885090678930283,0.05825120210647583,-0.9967000484466553
1785448834343319700,0.02853191085159779,0.07675240188837051,-1.008543372154236
1785448834343350800,0.04099408164620399,0.08969417214393616,-1.000631809234619
1785448834363272000,0.02651962824165821,0.09337671101093292,-0.9932419061660767
1785448834363304500,0.01137222442775965,0.09852178394794464,-0.9871370196342468
1785448834383270500,0.009233690798282623,0.103446789085865,-0.9848857522010803
1785448834383302100,0.01672799326479435,0.108112633228302,-0.9855652451515198
1785448834403226700,0.02825772948563099,0.1116895973682404,-0.9858461618423462
1785448834403284100,0.02899218536913395,0.1099363937973976,-0.9884998202323914
1785448834423207700,0.02956286631524563,0.1001003608107567,-0.9925427436828613
1785448834423232000,0.025315897539258,0.09332675486803055,-0.9942002892494202
1785448834443231400,0.01957373693585396,0.09487425535917282,-0.9919583797454834
1785448834443262000,0.01684211380779743,0.09771935641765594,-0.9899894595146179
1785448834463181500,0.015210778452456,0.0956466868519783,-0.9901891946792603
1785448834463210900,0.01770827360451221,0.09013375639915466,-0.9919309616088867
1785448834483235700,0.02195796184241772,0.081577368080616,-0.996894896030426
1785448834483292600,0.02003668248653412,0.08634845912456512,-0.9931275844573975
1785448834503155200,0.01566131040453911,0.09167540073394775,-0.9911913275718689
1785448834503181700,0.01595360785722733,0.08959025889635086,-0.9917269349098206
1785448834523132100,0.02155241742730141,0.08398423343896866,-0.9938685894012451
1785448834523161400,0.02737037651240826,0.07795229554176331,-0.9962974786758423
1785448834543248800,0.02594225667417049,0.07929014414548874,-0.9956991076469421
1785448834543284700,0.02238441631197929,0.0826030820608139,-0.9938262701034546
1785448834563206000,0.02282081171870232,0.08892563730478287,-0.9913368225097656
1785448834563268500,0.02503286860883236,0.08823857456445694,-0.9915227293968201
1785448834583191300,0.02057592384517193,0.08171091973781586,-0.9938322901725769
1785448834583237600,0.02086458913981915,0.07326292991638184,-0.9967805147171021
1785448834603090300,0.02183065935969353,0.06948351114988327,-0.9983873963356018
1785448834603114900,0.03070424310863018,0.08144649118185043,-0.9932467341423035
1785448834624139200,0.02052520588040352,0.08332618325948715,-0.9932913184165955
1785448834624187900,0.02019205875694752,0.08366861194372177,-0.9926525354385376
1785448834644026500,0.02051623910665512,0.08208489418029785,-0.9937230944633484
1785448834644067000,0.02089225687086582,0.08138704299926758,-0.9940609335899353
1785448834664121600,0.02333087474107742,0.08038707822561264,-0.9938247203826904
1785448834664163900,0.0265230517834425,0.07901637256145477,-0.994072437286377
1785448834684167800,0.02735581435263157,0.08217574656009674,-0.9940719604492188
1785448834684203000,0.02879797108471394,0.08172982931137085,-0.9938235878944397
1785448834704068400,0.02974400110542774,0.08220327645540237,-0.9940248131752014
1785448834704093200,0.03247715905308723,0.08658631891012192,-0.9941924810409546
1785448834724089800,0.0403701551258564,0.08986470848321915,-0.99420166015625
1785448834724148200,0.03850416466593742,0.09970370680093765,-0.9961941838264465
1785448834743991900,0.03880472853779793,0.09876877069473267,-0.9970546960830688
1785448834744013100,0.03738575056195259,0.08447004854679108,-0.9972330331802368
1785448834764060500,0.03181176260113716,0.0902828723192215,-0.9994608163833618
1785448834764103200,0.02941423282027245,0.07111240178346634,-1.002938985824585
1785448834784043800,0.02918519824743271,0.061282929033041,-1.005234003067017
1785448834784074700,0.02392018213868141,0.05967897176742554,-1.002621293067932
1785448834804050100,-0.01528545655310154,0.08590895682573318,-0.9990841150283813
1785448834804079000,-0.0257849432528019,0.1247546896338463,-0.9644415974617004
1785448834823962600,-0.003503737505525351,0.09501436352729797,-0.9854077100753784
1785448834823989400,0.009794337674975395,0.08540988713502884,-0.9958082437515259
1785448834844107100,0.00980084203183651,0.09479124844074249,-0.9914470911026001
1785448834844180400,0.01057202182710171,0.1007679775357246,-0.9884035587310791
1785448834863988100,0.01367597561329603,0.1000393256545067,-0.9911798238754272
1785448834864017200,0.01590853184461594,0.1000822708010674,-0.9937583208084106
1785448834883970000,0.0150254238396883,0.1022551953792572,-0.9916353821754456
1785448834884026100,0.01486536860466003,0.1016504764556885,-0.9916065335273743
1785448834903948800,0.01408641040325165,0.09530778229236603,-0.9941477179527283
1785448834903980500,0.01322476472705603,0.09274082630872726,-0.9941973090171814
1785448834923887200,0.01120897941291332,0.0934964120388031,-0.9920894503593445
1785448834923911900,0.01064070127904415,0.09711890667676926,-0.9917464852333069
1785448834943911900,0.01187313906848431,0.09861474484205246,-0.9916048645973206
1785448834943941200,0.01987061649560928,0.1063182428479195,-0.9901212453842163
1785448834963908500,0.01492204703390598,0.09878747910261154,-0.9923906922340393
1785448834963948300,0.01374571956694126,0.09880834817886353,-0.9926667213439941
1785448834983863900,0.01373125892132521,0.1010213270783424,-0.9921003580093384
1785448834983901700,0.01397173199802637,0.09877549111843109,-0.9927505850791931
1785448835003934200,0.01334855798631907,0.09786851704120636,-0.9923346638679504
1785448835003960100,0.01219802349805832,0.09767231345176697,-0.992129921913147
1785448835023885800,0.01269127335399389,0.09757505357265472,-0.9929311275482178
1785448835023947300,0.01189864613115788,0.09854238480329514,-0.9917454123497009
1785448835043814000,0.01270924974232912,0.09793176501989365,-0.9923227429389954
1785448835043854500,0.01355805154889822,0.09670540690422058,-0.9923503994941711
1785448835063958500,0.01187663525342941,0.0965203121304512,-0.9916865229606628
1785448835064017700,0.0121352719143033,0.09661532938480377,-0.992597758769989
1785448835083857300,0.01216217502951622,0.09657417982816696,-0.991837739944458
1785448835083916300,0.01220517978072166,0.09571248292922974,-0.992220401763916
1785448835103754600,0.01201479882001877,0.09395832568407059,-0.9927152991294861
1785448835103792600,0.0121330488473177,0.09504843503236771,-0.9928333759307861
1785448835123747100,0.0128868455067277,0.09580803662538528,-0.9928749203681946
1785448835123796100,0.01284348499029875,0.09701888263225555,-0.9922670125961304
1785448835143799100,0.01269296184182167,0.09695941954851151,-0.9924855828285217
1785448835143853200,0.01302067190408707,0.0970890074968338,-0.9924328923225403
1785448835163804500,0.0131136467680335,0.0971963033080101,-0.9923771619796753
1785448835163856100,0.01315743010491133,0.09777715057134628,-0.9919946193695068
1785448835183727800,0.0131716588512063,0.09743402898311615,-0.992088258266449
1785448835183764200,0.01292232144623995,0.09704849123954773,-0.9923595190048218
1785448835203755100,0.01313535030931234,0.09759365767240524,-0.9922720789909363
1785448835203788000,0.01310563739389181,0.09779728949069977,-0.9926316142082214
1785448835223740400,0.01305491477251053,0.09825451672077179,-0.99261873960495
1785448835223797100,0.01357799116522074,0.09817203879356384,-0.992597222328186
1785448835243693800,0.01359739992767572,0.09791859984397888,-0.9925885200500488
1785448835243756200,0.01340139377862215,0.09749749302864075,-0.9923385381698608
1785448835263779600,0.01292573101818562,0.09753099083900452,-0.9925227761268616
1785448835263929500,0.0130388168618083,0.09717528522014618,-0.9924643039703369
1785448835283806700,0.01316156610846519,0.09760826081037521,-0.9925689101219177
1785448835283832900,0.01326827146112919,0.09783297032117844,-0.9924293756484985
1785448835303705300,0.01349344756454229,0.09777578711509705,-0.9924338459968567
1785448835303729700,0.01358327642083168,0.09767141938209534,-0.9924508333206177
1785448835323640600,0.01336267683655024,0.09742965549230576,-0.9926429390907288
1785448835323678800,0.01324504520744085,0.09759039431810379,-0.9926894903182983
1785448835343673000,0.01328204479068518,0.09766616672277451,-0.9920006990432739
1785448835343703700,0.01326307188719511,0.09768733382225037,-0.9924458861351013
1785448835363644000,0.01313261967152357,0.09778919816017151,-0.9924806356430054
1785448835363692300,0.01317322254180908,0.09769263863563538,-0.9926873445510864
1785448835383547300,0.01306947320699692,0.09740746021270752,-0.9926244616508484
1785448835383576800,0.01307164877653122,0.09781764447689056,-0.9923214912414551
1785448835403634900,0.01298431493341923,0.09769915044307709,-0.9926571249961853
1785448835403684900,0.01313001941889524,0.09777208417654037,-0.9923465847969055
1785448835423636600,0.01315837353467941,0.0980924591422081,-0.9923355579376221
1785448835423719800,0.01318707875907421,0.09796270728111267,-0.9925223588943481
1785448835443606700,0.01301356125622988,0.09802538901567459,-0.9923931956291199
1785448835443664900,0.01336795650422573,0.09793846309185028,-0.9924467802047729
1785448835463603100,0.0131934555247426,0.09785491973161697,-0.99223792552948
1785448835463662700,0.01317646075040102,0.09802430868148804,-0.9925757050514221
1785448835483581000,0.01335224043577909,0.09858676046133041,-0.9923855662345886
1785448835483644400,0.01328479219228029,0.09888778626918793,-0.9921919703483582
1785448835503560900,0.01375191751867533,0.09913595765829086,-0.9921659827232361
1785448835503590000,0.01344161573797464,0.09837730973958969,-0.9920030832290649
1785448835523486900,0.0132557051256299,0.09775766730308533,-0.9923009276390076
1785448835523519200,0.01310779619961977,0.09697797894477844,-0.9924555420875549
1785448835543483200,0.01304216682910919,0.09685835987329483,-0.9926161170005798
1785448835543522300,0.01301952078938484,0.097054623067379,-0.9925552010536194
1785448835563499700,0.0131086865440011,0.09708675742149353,-0.9923861026763916
1785448835563549700,0.01327718142420053,0.09724096953868866,-0.9927083849906921
1785448835583635500,0.01347020827233791,0.09794816374778748,-0.9925148487091064
1785448835583733800,0.01334131322801113,0.09786857664585114,-0.9923819899559021
1785448835603411400,0.01337295398116112,0.09785176068544388,-0.9925116896629333
1785448835603450400,0.01311342790722847,0.09737546741962433,-0.9927018284797668
1785448835623403900,0.01299718022346497,0.09733480960130692,-0.992600679397583
1785448835623449200,0.01323574688285589,0.09782745689153671,-0.9928064346313477
1785448835643396200,0.01328953821212053,0.09775025397539139,-0.9925609827041626
1785448835643439700,0.01307814382016659,0.09807842224836349,-0.992299497127533
1785448835663542500,0.01316728163510561,0.09758391976356506,-0.9924355745315552
1785448835663605100,0.01309877075254917,0.0975571796298027,-0.9926578402519226
1785448835683411900,0.01318118441849947,0.09750661253929138,-0.9923067688941956
1785448835683463100,0.01327782962471247,0.09771300107240677,-0.9924667477607727
1785448835703405100,0.01315474137663841,0.09793595969676971,-0.9923070669174194
1785448835703469900,0.01309711113572121,0.09774177521467209,-0.9926727414131165
1785448835723434200,0.01325465738773346,0.09813214093446732,-0.9922768473625183
1785448835723477200,0.0131195206195116,0.09780343621969223,-0.9923019409179688
1785448835743483000,0.01340693049132824,0.09736285358667374,-0.9924882054328918
1785448835743515200,0.01327257230877876,0.09770624339580536,-0.9922799468040466
1785448835763507200,0.01336813904345036,0.09751485288143158,-0.9922284483909607
1785448835763546600,0.01317652594298124,0.09787045419216156,-0.9920997023582458
1785448835783417700,0.01310751680284739,0.09755950421094894,-0.9925947189331055
1785448835783570300,0.01317222416400909,0.09819922596216202,-0.9921969175338745
1785448835803341700,0.01336999330669641,0.09773299098014832,-0.992304801940918
1785448835803390600,0.01344613544642925,0.09765161573886871,-0.9922714233398438
1785448835823345300,0.01327520702034235,0.09783963859081268,-0.9921283721923828
1785448835823375800,0.01321682799607515,0.0977964922785759,-0.99247145652771
1785448835843300500,0.01334821898490191,0.0981963649392128,-0.9923164844512939
1785448835843337900,0.01335581671446562,0.09811655431985855,-0.9927643537521362
1785448835863404200,0.01324914861470461,0.09792168438434601,-0.9926704168319702
1785448835863459500,0.01327235903590918,0.09796563535928726,-0.9923430681228638
1785448835883319300,0.01332244835793972,0.09782673418521881,-0.9928780198097229
1785448835883394100,0.01306444220244884,0.09757334738969803,-0.9928074479103088
1785448835903297000,0.0132815120741725,0.09742340445518494,-0.9927014112472534
1785448835903332500,0.01324058696627617,0.09746832400560379,-0.9924586415290833
1785448835923282000,0.01311761513352394,0.09738402813673019,-0.992453396320343
1785448835923336300,0.0130698224529624,0.09762793034315109,-0.9922991394996643
1785448835943235000,0.01286614220589399,0.09744560718536377,-0.992231547832489
1785448835943261700,0.0130202379077673,0.0974976122379303,-0.9925053119659424
1785448835963381900,0.01316763833165169,0.09775666892528534,-0.9922043085098267
1785448835963430300,0.01351098343729973,0.09761085361242294,-0.992479681968689
1785448835983226700,0.01338619738817215,0.09784756600856781,-0.9922471046447754
1785448835983272200,0.01338212937116623,0.09776291251182556,-0.9921744465827942
1785448836003237700,0.01321499142795801,0.09762836992740631,-0.9925058484077454
1785448836003279800,0.01312338374555111,0.09762874245643616,-0.9921628832817078
1785448836023199300,0.01305439416319132,0.09728235006332397,-0.9927800893783569
1785448836023236800,0.01332418341189623,0.09766149520874023,-0.992776095867157
1785448836043241900,0.01316991914063692,0.09776315838098526,-0.9923788905143738
1785448836043273100,0.01303190272301435,0.098062664270401,-0.9919360280036926
1785448836063191100,0.0131610045209527,0.09796405583620071,-0.9924771189689636
1785448836063253300,0.01312134508043528,0.09769727289676666,-0.992582380771637
1785448836083127300,0.01306869555264711,0.09763230383396149,-0.9923130869865417
1785448836083170500,0.01309569086879492,0.09758871793746948,-0.9927900433540344
1785448836103124800,0.01310983952134848,0.09798667579889297,-0.9925310611724854
1785448836103168400,0.01319587975740433,0.09795644134283066,-0.9923048615455627
1785448836123125100,0.01309874188154936,0.09780718386173248,-0.9925806522369385
1785448836123156800,0.01319355145096779,0.0977499932050705,-0.9925318360328674
1785448836143163500,0.0132713196799159,0.09760220348834991,-0.9923385381698608
1785448836143195300,0.01318578887730837,0.09764319658279419,-0.9920220375061035
1785448836163126300,0.01320657134056091,0.0976925790309906,-0.9925330281257629
1785448836163176800,0.01317869406193495,0.09770596027374268,-0.9923738837242126
1785448836183143100,0.01320109330117702,0.09781304746866226,-0.9925817251205444
1785448836183195100,0.01318934373557568,0.097624272108078,-0.9925969243049622
1785448836204123200,0.01309765782207251,0.09783238172531128,-0.9924976825714111
1785448836204169100,0.01307463180273771,0.09763789176940918,-0.9927501082420349
1785448836224128500,0.01310701202601194,0.09764057397842407,-0.9925890564918518
1785448836224212800,0.01300934143364429,0.09767493605613708,-0.9926780462265015
1785448836244015600,0.01294387318193913,0.09764717519283295,-0.9925869107246399
1785448836244061600,0.01298175472766161,0.09770774096250534,-0.9924394488334656
1785448836264013700,0.01296503376215696,0.09757360816001892,-0.9927406907081604
1785448836264046900,0.01308297365903854,0.09759838134050369,-0.9923421740531921
1785448836284161100,0.01303260587155819,0.0973842665553093,-0.9924358725547791
1785448836284243800,0.01308263000100851,0.097519651055336,-0.9925850629806519
1785448836304094700,0.0129401907324791,0.09761049598455429,-0.9926833510398865
1785448836304154200,0.01298382319509983,0.09765274077653885,-0.9926815629005432
1785448836323975200,0.01304132584482431,0.09785813093185425,-0.9922913908958435
1785448836324002900,0.01296286191791296,0.09770286828279495,-0.9924113750457764
1785448836344060600,0.01301958225667477,0.09790586680173874,-0.9919118285179138
1785448836344113300,0.01303262170404196,0.09770596772432327,-0.9921754598617554
1785448836364052900,0.01304468791931868,0.09760648757219315,-0.9924525022506714
1785448836364100400,0.01314947195351124,0.09766364842653275,-0.9923925399780273
1785448836384052700,0.01317176129668951,0.09757973998785019,-0.9923107624053955
1785448836384077300,0.01314557623118162,0.09767605364322662,-0.9921992421150208
1785448836404056100,0.01298600621521473,0.09771469235420227,-0.9925897717475891
1785448836404088600,0.01306985970586538,0.09786286950111389,-0.9925093650817871
1785448836423909400,0.01328197494149208,0.09783761948347092,-0.992388904094696
1785448836423945100,0.01379676349461079,0.09885579347610474,-0.9919040203094482
1785448836443918100,0.0140000581741333,0.09904878586530685,-0.9956382513046265
1785448836443959300,0.01303055044263601,0.09704364836215973,-0.9932648539543152
1785448836463899200,0.01361239049583673,0.09791471064090729,-0.991035521030426
1785448836463951800,0.01318242028355598,0.09754680097103119,-0.9930108785629272
1785448836483877300,0.01310674101114273,0.09726070612668991,-0.9930614233016968
1785448836483921400,0.01324289105832577,0.0976446196436882,-0.9917623400688171
1785448836503855100,0.01325233373790979,0.0975399911403656,-0.992099404335022
1785448836503885800,0.01331063080579042,0.09770403802394867,-0.992584764957428
1785448836523823100,0.01337991561740637,0.09765429794788361,-0.9920135140419006
1785448836523848100,0.01316397916525602,0.09767761081457138,-0.9925469160079956
1785448836543848700,0.01319871749728918,0.09758161008358002,-0.9928346276283264
1785448836543888900,0.01319046225398779,0.09781777113676071,-0.9921273589134216
1785448836563846100,0.01308071985840797,0.09793709963560104,-0.9927049875259399
1785448836563917400,0.01283963583409786,0.09772224724292755,-0.9928503036499023
1785448836583836800,0.01301100756973028,0.09778215736150742,-0.9917963743209839
1785448836583899100,0.01318838633596897,0.09775105118751526,-0.992576003074646
1785448836603844300,0.01299898792058229,0.09753165394067764,-0.9923331141471863
1785448836603901800,0.01346912886947393,0.09752994775772095,-0.991939902305603
1785448836623838700,0.01362532563507557,0.09768079221248627,-0.9926021695137024
1785448836623870800,0.01339220628142357,0.09773004055023193,-0.9924329519271851
1785448836643749000,0.01331607345491648,0.09761396795511246,-0.9921306967735291
1785448836643815200,0.01305416226387024,0.09771587699651718,-0.9924026727676392
1785448836663815700,0.01301213353872299,0.09753929078578949,-0.9929715991020203
1785448836663861600,0.01302143465727568,0.0971423014998436,-0.9922559261322021
1785448836683857600,0.01332587841898203,0.09747181832790375,-0.9927241206169128
1785448836683933400,0.01294106338173151,0.09743298590183258,-0.9925017952919006
1785448836703723900,0.01315950602293015,0.0977746918797493,-0.9920811057090759
1785448836703781000,0.01292402576655149,0.09758991748094559,-0.9925512075424194
1785448836723730100,0.0128486854955554,0.09765490144491196,-0.9924336671829224
1785448836723789900,0.01308169588446617,0.09739350527524948,-0.9923202395439148
1785448836743729800,0.01317673828452826,0.09756094217300415,-0.9925341010093689
1785448836743769400,0.01314220950007439,0.09765634685754776,-0.9924434423446655
1785448836763711200,0.01300385966897011,0.0975329726934433,-0.992316722869873
1785448836763746100,0.0130545049905777,0.09769266843795776,-0.9919997453689575
1785448836783937100,0.01304573193192482,0.09765144437551498,-0.9922146201133728
1785448836784025800,0.01299144607037306,0.0978696346282959,-0.9926708340644836
1785448836803766000,0.0129356449469924,0.0979028195142746,-0.9925937056541443
1785448836803794600,0.01321669667959213,0.09781426191329956,-0.9922525882720947
1785448836823698800,0.01315750181674957,0.09778612107038498,-0.9924450516700745
1785448836823732100,0.01318969111889601,0.09767810255289078,-0.9924826622009277
1785448836843694500,0.01314999535679817,0.09765724837779999,-0.9923765063285828
1785448836843727100,0.01301483903080225,0.097715824842453,-0.9927608370780945
1785448836863716000,0.01317398529499769,0.0976158007979393,-0.9921983480453491
1785448836863748700,0.01307360175997019,0.09768109023571014,-0.992443859577179
1785448836883796400,0.01289408374577761,0.09756218641996384,-0.9925029873847961
1785448836883842700,0.01295174937695265,0.09774075448513031,-0.992277979850769
1785448836903691100,0.01310891937464476,0.09759649634361267,-0.9927306175231934
1785448836903724700,0.01290390733629465,0.0978863313794136,-0.9918579459190369
1785448836923659900,0.01314540673047304,0.09777422249317169,-0.9920070171356201
1785448836923693400,0.01313361153006554,0.09782388806343079,-0.9923877716064453
1785448836943663900,0.01317009888589382,0.09766221791505814,-0.9922008514404297
1785448836943697800,0.01331048924475908,0.09736441820859909,-0.9922452569007874
